Frequency Spectrum for Input Signal

Data Shown:    V2-26 (Community)
Display Parameters:   Frequency: 1000Hz (1/24th Octave)   Mer: 180°  Par: 130°

Freq [Hz]	Signal Level [dBSPL]
22.4	51.2
23	51.6
23.6	52.1
24	52.6
25	53.2
25.8	53.7
26.5	54.2
27.2	54.7
28	55.2
29	55.6
30	56.1
30.7	56.7
31.5	57.3
32.5	57.8
33.5	58.3
34.5	58.7
35.5	59.2
36.5	59.9
37.5	60.5
38.7	61.1
40	61.7
41.2	62.2
42.5	62.8
43.7	63.5
45	64
46.2	64.6
47.5	65.1
48.7	65.8
50	66.5
51.5	67.1
53	67.6
54.5	68.3
56	68.9
58	69.5
60	70.1
61.5	70.7
63	71.3
65	71.9
67	72.5
69	73.1
71	73.6
73	74.2
75	74.8
77.5	75.3
80	75.9
82.5	76.4
85	76.9
87.5	77.4
90	77.9
92.5	78.4
95	78.9
97.5	79.3
100	79.7
103	80.2
106	80.6
109	80.9
112	81.3
115	81.6
118	81.9
122	82.1
125	82.3
128	82.5
132	82.6
136	82.7
140	82.7
145	82.7
150	82.6
155	82.5
160	82.3
165	82
170	81.8
175	81.5
180	81.3
185	81.1
190	81
195	81.1
200	81.2
206	81.4
212	81.6
218	81.8
224	81.9
230	81.9
236	81.8
240	81.5
250	81
258	80.5
265	80
272	79.8
280	79.7
290	79.9
300	80.1
307	80.3
315	80.3
325	80.1
335	79.8
345	79.2
355	78.6
365	77.9
375	77
387	76.2
400	75.3
412	74.4
425	73.9
437	73.7
450	73.8
462	74
475	73.9
487	73.5
500	72.9
515	72.5
530	72.6
545	73
560	73.5
580	74
600	74.4
615	74.5
630	73.9
650	72.8
670	71.2
690	69.6
710	68.6
730	68.8
750	69.8
775	70.7
800	71.7
825	72.4
850	72
875	70.2
900	69.3
925	69.2
950	69.4
975	69.2
1000	68.4
1030	69.1
1060	70.6
1090	71
1120	71.1
1150	71
1180	69.6
1220	67.9
1250	68.4
1280	69.2
1320	69.1
1360	69.1
1400	69.6
1450	70.1
1500	70.2
1550	71.6
1600	73
1650	72.7
1700	72.2
1750	73.3
1800	74.2
1850	75.1
1900	73.3
1950	70
2000	67.4
2060	67.6
2120	68.9
2180	68.7
2240	64.9
2300	58.7
2360	51.9
2400	61.8
2500	65.5
2580	63.9
2650	59.1
2720	59.4
2800	62.7
2900	62
3000	61.2
3070	60.2
3150	59.1
3250	62.1
3350	62.8
3450	63.8
3550	62
3650	59.5
3750	58.8
3870	60.3
4000	57.3
4120	59.1
4250	58
4370	57.4
4500	54.5
4620	59.4
4750	49.1
4870	54
5000	61.8
5150	58.8
5300	62.6
5450	59.2
5600	61.2
5800	64.3
6000	58.4
6150	62.3
6300	66.4
6500	64.9
6700	65.1
6900	64.6
7100	64.1
7300	65.1
7500	67.1
7750	64.9
8000	63.3
8250	57.7
8500	59
8750	59.1
9000	59.7
9250	58.6
9500	58.8
9750	56
10000	58.2
10300	59.9
10600	58.9
10900	56.8
11200	55.6
11500	52.4
11800	53.7
12200	53.3
12500	49.9
12800	47.9
13200	48.2
13600	50
14000	46.4
14500	44.9
15000	45.5
15500	51.9
16000	48.5
16500	42.1
17000	36.6
17500	42.1
18000	43.6
18500	31
19000	35.8
19500	37.1
20000	48.3
20600	55.6
21200	59.4
21800	56
22400	49.2
