Frequency Spectrum for Input Signal

Data Shown:    V2-26 (Community)
Display Parameters:   Frequency: 1000Hz (1/24th Octave)   Mer: 90°  Par: 120°

Freq [Hz]	Signal Level [dBSPL]
22.4	49.9
23	50.4
23.6	50.8
24	51.5
25	52.1
25.8	52.7
26.5	53.2
27.2	53.8
28	54.3
29	54.8
30	55.3
30.7	55.9
31.5	56.5
32.5	57.1
33.5	57.6
34.5	58.1
35.5	58.6
36.5	59.3
37.5	60
38.7	60.7
40	61.3
41.2	61.8
42.5	62.5
43.7	63.2
45	63.8
46.2	64.3
47.5	64.9
48.7	65.6
50	66.3
51.5	66.9
53	67.5
54.5	68.2
56	68.8
58	69.4
60	69.9
61.5	70.6
63	71.2
65	71.8
67	72.4
69	73
71	73.5
73	74.1
75	74.7
77.5	75.2
80	75.8
82.5	76.3
85	76.8
87.5	77.3
90	77.8
92.5	78.3
95	78.7
97.5	79.2
100	79.6
103	80
106	80.4
109	80.7
112	81
115	81.4
118	81.6
122	81.9
125	82
128	82.2
132	82.3
136	82.4
140	82.4
145	82.3
150	82.2
155	82.1
160	81.9
165	81.6
170	81.4
175	81.1
180	80.8
185	80.6
190	80.6
195	80.6
200	80.7
206	80.9
212	81.1
218	81.3
224	81.4
230	81.4
236	81.3
240	81
250	80.6
258	80.1
265	79.6
272	79.4
280	79.3
290	79.5
300	79.6
307	79.7
315	79.7
325	79.5
335	79.1
345	78.5
355	77.9
365	77.2
375	76.4
387	75.6
400	74.7
412	73.8
425	73.2
437	72.9
450	73
462	73.1
475	73.1
487	72.8
500	72.3
515	71.8
530	71.6
545	71.5
560	71.4
580	71.5
600	71.8
615	72.2
630	72.1
650	71.5
670	70.6
690	69.7
710	68.8
730	67.6
750	65.8
775	63.2
800	60.5
825	60.5
850	62.4
875	62.6
900	61.5
925	60.3
950	65
975	69.4
1000	71.4
1030	73.2
1060	74.2
1090	73.1
1120	71.7
1150	71.4
1180	70.8
1220	68.7
1250	64
1280	53.2
1320	57.4
1360	61.9
1400	64.3
1450	66.6
1500	67.4
1550	66.3
1600	67.3
1650	69
1700	69.5
1750	70.5
1800	71.1
1850	70.4
1900	68.2
1950	67
2000	66.6
2060	67.7
2120	68
2180	65.1
2240	62.1
2300	56.4
2360	62.1
2400	61.5
2500	58.1
2580	55
2650	54.8
2720	62.8
2800	64.1
2900	61
3000	59.4
3070	63.5
3150	63
3250	63.4
3350	59.8
3450	61.8
3550	64.2
3650	63
3750	60.3
3870	61
4000	61.3
4120	61
4250	60.2
4370	61.4
4500	60.9
4620	62
4750	61.6
4870	58.1
5000	63
5150	61.1
5300	63.6
5450	60
5600	64.8
5800	67.6
6000	66.7
6150	63.9
6300	68.1
6500	65.7
6700	63.6
6900	65.1
7100	68.7
7300	67.8
7500	69.9
7750	65.6
8000	64.4
8250	60.6
8500	62.5
8750	59.6
9000	57.8
9250	66.9
9500	66.5
9750	65.1
10000	70.1
10300	70.7
10600	69.6
10900	62.5
11200	62
11500	58.7
11800	59.8
12200	62.8
12500	62.2
12800	58.7
13200	51.3
13600	45.4
14000	50.5
14500	51.4
15000	52
15500	55.2
16000	52.8
16500	48.3
17000	44
17500	46.6
18000	46.1
18500	38.8
19000	38.1
19500	44.2
20000	51.8
20600	53.4
21200	48.3
21800	58.6
22400	50.8
