Frequency Spectrum for Input Signal

Data Shown:    V2-8 (Community)
Display Parameters:   Frequency: 1000Hz (1/24th Octave)   Mer: 270°  Par: 140°

Freq [Hz]	Signal Level [dBSPL]
22.4	54.2
23	54.8
23.6	55.4
24	56.1
25	56.8
25.8	57.5
26.5	58.1
27.2	58.7
28	59.2
29	59.7
30	60.2
30.7	60.8
31.5	61.4
32.5	62
33.5	62.5
34.5	63
35.5	63.4
36.5	64
37.5	64.5
38.7	64.9
40	65.4
41.2	65.8
42.5	66.3
43.7	66.8
45	67.3
46.2	67.7
47.5	68.2
48.7	68.6
50	69.1
51.5	69.5
53	69.9
54.5	70.4
56	70.9
58	71.3
60	71.8
61.5	72.2
63	72.7
65	73.1
67	73.6
69	74
71	74.4
73	74.9
75	75.3
77.5	75.8
80	76.2
82.5	76.6
85	77
87.5	77.4
90	77.8
92.5	78.2
95	78.6
97.5	79
100	79.3
103	79.6
106	80
109	80.2
112	80.5
115	80.8
118	81
122	81.1
125	81.2
128	81.3
132	81.4
136	81.4
140	81.3
145	81.2
150	81.1
155	80.9
160	80.6
165	80.2
170	79.9
175	79.5
180	79.1
185	78.8
190	78.5
195	78.3
200	78.2
206	78.3
212	78.3
218	78.4
224	78.4
230	78.2
236	78.1
240	77.9
250	78
258	78.4
265	79.1
272	79.9
280	80.7
290	81.4
300	81.9
307	82.2
315	82.2
325	82.1
335	81.8
345	81.3
355	80.7
365	80
375	79.3
387	78.5
400	77.6
412	76.8
425	76.2
437	75.9
450	75.8
462	75.8
475	75.6
487	75.1
500	74.4
515	73.5
530	72.9
545	72.5
560	72.3
580	72
600	71.6
615	71
630	70.3
650	69.9
670	70.5
690	71.1
710	72.6
730	75.7
750	76.6
775	75.4
800	73.9
825	74.3
850	75.4
875	75.9
900	75.2
925	73.8
950	71.8
975	69.6
1000	68.6
1030	69.4
1060	70
1090	69.9
1120	69.7
1150	69.6
1180	69
1220	67.3
1250	67.8
1280	69.4
1320	69.5
1360	68.2
1400	68
1450	70.6
1500	72.5
1550	74
1600	74.8
1650	76.3
1700	75.6
1750	73.4
1800	72.7
1850	72.2
1900	72.3
1950	70.6
2000	67.5
2060	67.6
2120	70.3
2180	71.5
2240	70.4
2300	69.4
2360	67.6
2400	68.1
2500	67.5
2580	67.1
2650	67.4
2720	66.3
2800	62
2900	59
3000	61.8
3070	62.8
3150	62.5
3250	64.2
3350	64
3450	63.5
3550	61.6
3650	60
3750	60.4
3870	61
4000	60.5
4120	62.6
4250	64.1
4370	61.3
4500	54.8
4620	51.6
4750	58.3
4870	59.9
5000	56.7
5150	53.7
5300	52.1
5450	50.6
5600	50.1
5800	57.2
6000	59.8
6150	54.1
6300	48.4
6500	52.8
6700	51
6900	54.7
7100	52.1
7300	54.2
7500	55.4
7750	57.2
8000	53.7
8250	51.3
8500	53.5
8750	55.9
9000	54.3
9250	56.1
9500	51.8
9750	53.6
10000	57.3
10300	57.2
10600	57.1
10900	54.6
11200	52.1
11500	53
11800	47.8
12200	50.5
12500	47.3
12800	46.5
13200	45
13600	39.5
14000	37.6
14500	37.4
15000	41.6
15500	43.1
16000	40.1
16500	33.6
17000	35.2
17500	34.8
18000	36.5
18500	30.9
19000	30.3
19500	33.1
20000	47.5
20600	51.6
21200	56.5
21800	52.9
22400	58.1
