Frequency Spectrum for Input Signal

Data Shown:    V2-8 (Community)
Display Parameters:   Frequency: 1000Hz (1/24th Octave)   Mer: 270°  Par: 20°

Freq [Hz]	Signal Level [dBSPL]
22.4	57.8
23	58.2
23.6	58.6
24	59
25	59.5
25.8	60
26.5	60.4
27.2	60.8
28	61.2
29	61.6
30	62
30.7	62.5
31.5	63
32.5	63.4
33.5	63.8
34.5	64.2
35.5	64.6
36.5	65.1
37.5	65.6
38.7	66
40	66.4
41.2	66.8
42.5	67.3
43.7	67.8
45	68.2
46.2	68.7
47.5	69.1
48.7	69.6
50	70.1
51.5	70.6
53	71
54.5	71.5
56	72
58	72.5
60	72.9
61.5	73.5
63	74
65	74.4
67	74.9
69	75.4
71	75.9
73	76.4
75	76.9
77.5	77.3
80	77.8
82.5	78.3
85	78.7
87.5	79.2
90	79.6
92.5	80
95	80.4
97.5	80.8
100	81.2
103	81.6
106	81.9
109	82.2
112	82.5
115	82.8
118	83
122	83.2
125	83.4
128	83.5
132	83.6
136	83.6
140	83.6
145	83.5
150	83.4
155	83.2
160	82.9
165	82.6
170	82.2
175	81.8
180	81.4
185	81
190	80.7
195	80.4
200	80.2
206	80.1
212	80
218	79.9
224	79.7
230	79.4
236	79.2
240	79
250	79.2
258	79.8
265	80.8
272	81.9
280	83
290	84
300	84.7
307	85.3
315	85.6
325	85.7
335	85.6
345	85.4
355	85
365	84.6
375	84.3
387	83.9
400	83.5
412	83.2
425	83.2
437	83.5
450	84
462	84.4
475	84.5
487	84.2
500	83.6
515	83
530	82.7
545	82.7
560	82.8
580	82.9
600	82.9
615	82.8
630	82
650	80.2
670	76.9
690	73.3
710	74.7
730	79.4
750	82.1
775	82.4
800	82.3
825	83.5
850	85
875	85.6
900	85.3
925	84.4
950	83.3
975	81.9
1000	80.5
1030	80.2
1060	80.1
1090	79.4
1120	78.5
1150	77.2
1180	75
1220	72.3
1250	73.7
1280	74.4
1320	72
1360	69.9
1400	71.4
1450	72.8
1500	76
1550	79.2
1600	80
1650	81.4
1700	81.9
1750	82
1800	83.8
1850	84.4
1900	84.2
1950	83.8
2000	84.7
2060	85.4
2120	85
2180	85.1
2240	85.2
2300	84.4
2360	82.8
2400	81
2500	81.6
2580	81.2
2650	80.7
2720	81.2
2800	81
2900	80
3000	79.8
3070	79
3150	79.7
3250	80.5
3350	80.1
3450	79.8
3550	80.4
3650	81.5
3750	81.4
3870	83
4000	83
4120	83.6
4250	82.9
4370	83.2
4500	82.8
4620	82
4750	79.2
4870	79.6
5000	79.4
5150	80.3
5300	79.2
5450	77.8
5600	77.3
5800	80.1
6000	79.9
6150	81.4
6300	81.8
6500	80.2
6700	80.3
6900	80.6
7100	80
7300	81.5
7500	81.4
7750	81.8
8000	80.7
8250	79.1
8500	80.9
8750	79.4
9000	78.6
9250	75.3
9500	79.3
9750	80.7
10000	83
10300	83.9
10600	85.1
10900	82.9
11200	84.9
11500	82.8
11800	79.1
12200	82.5
12500	83.5
12800	81.3
13200	77.5
13600	75.4
14000	77.4
14500	75.9
15000	76
15500	77.5
16000	77.4
16500	78
17000	71.8
17500	68
18000	65.9
18500	68.2
19000	65.1
19500	59.4
20000	62.1
20600	58.1
21200	58.2
21800	55.5
22400	53.1
