Frequency Spectrum for Input Signal

Data Shown:    V2-8 (Community)
Display Parameters:   Frequency: 1000Hz (1/24th Octave)   Mer: 90°  Par: 90°

Freq [Hz]	Signal Level [dBSPL]
22.4	54.1
23	54.6
23.6	55.2
24	55.8
25	56.5
25.8	57.1
26.5	57.7
27.2	58.3
28	58.8
29	59.3
30	59.8
30.7	60.4
31.5	60.9
32.5	61.4
33.5	61.9
34.5	62.4
35.5	62.8
36.5	63.4
37.5	63.9
38.7	64.4
40	64.8
41.2	65.3
42.5	65.8
43.7	66.3
45	66.8
46.2	67.3
47.5	67.7
48.7	68.2
50	68.7
51.5	69.2
53	69.6
54.5	70.1
56	70.6
58	71.1
60	71.5
61.5	72
63	72.5
65	72.9
67	73.4
69	73.9
71	74.3
73	74.8
75	75.3
77.5	75.7
80	76.2
82.5	76.6
85	77
87.5	77.4
90	77.8
92.5	78.3
95	78.6
97.5	79
100	79.4
103	79.7
106	80
109	80.3
112	80.6
115	80.8
118	81
122	81.2
125	81.4
128	81.4
132	81.5
136	81.5
140	81.4
145	81.3
150	81.2
155	81
160	80.7
165	80.4
170	80
175	79.6
180	79.2
185	78.9
190	78.6
195	78.4
200	78.3
206	78.3
212	78.4
218	78.4
224	78.5
230	78.4
236	78.3
240	78.2
250	78.4
258	78.9
265	79.6
272	80.4
280	81.2
290	81.9
300	82.4
307	82.6
315	82.6
325	82.5
335	82.1
345	81.6
355	80.9
365	80.3
375	79.6
387	79
400	78.4
412	77.9
425	77.8
437	78.1
450	78.7
462	79.2
475	79.5
487	79.3
500	78.9
515	78.4
530	78.2
545	78.3
560	78.4
580	78.7
600	79.1
615	79.6
630	80
650	79.9
670	79
690	77.2
710	76.7
730	78.6
750	79
775	77.7
800	76.1
825	75.8
850	75.4
875	74.3
900	72.5
925	70.6
950	68.7
975	66.4
1000	63
1030	58
1060	50.8
1090	55.8
1120	59
1150	59
1180	55.6
1220	54.3
1250	62.3
1280	67.2
1320	68.6
1360	67.1
1400	66
1450	68.8
1500	72.4
1550	74.8
1600	73.4
1650	71.3
1700	69.8
1750	67.8
1800	69.1
1850	71.6
1900	71.9
1950	71
2000	70.7
2060	68.9
2120	67.4
2180	68.2
2240	69.5
2300	71.7
2360	69.2
2400	65.1
2500	65.3
2580	61
2650	55.4
2720	63.2
2800	68.4
2900	69.7
3000	67.6
3070	66.2
3150	63.3
3250	63.6
3350	64.4
3450	65.3
3550	68
3650	67.5
3750	67.6
3870	69.3
4000	69.6
4120	67.8
4250	65.7
4370	65.6
4500	65.4
4620	66.2
4750	62.6
4870	62.6
5000	63.1
5150	67.9
5300	66.4
5450	63.7
5600	62.4
5800	64.6
6000	66.5
6150	66
6300	66.6
6500	64.5
6700	60.9
6900	62.3
7100	62.8
7300	62.1
7500	62.3
7750	63.5
8000	60.6
8250	61.7
8500	60.5
8750	59.5
9000	51.7
9250	63.7
9500	64.3
9750	66.6
10000	67.5
10300	69.1
10600	67.8
10900	65.5
11200	66.5
11500	64.8
11800	58.8
12200	61.7
12500	65.2
12800	62.7
13200	55.5
13600	51.7
14000	55.2
14500	56.2
15000	56.6
15500	56.9
16000	54.1
16500	52.8
17000	47.6
17500	47.7
18000	45.2
18500	42
19000	33.9
19500	37
20000	52.5
20600	56.5
21200	51.7
21800	51
22400	52.3
