Frequency Spectrum for Input Signal

Data Shown:    V2-8 (Community)
Display Parameters:   Frequency: 1000Hz (1/24th Octave)   Mer: 90°  Par: 150°

Freq [Hz]	Signal Level [dBSPL]
22.4	54
23	54.5
23.6	55
24	55.7
25	56.4
25.8	57
26.5	57.6
27.2	58.1
28	58.6
29	59.2
30	59.6
30.7	60.2
31.5	60.8
32.5	61.3
33.5	61.8
34.5	62.3
35.5	62.7
36.5	63.3
37.5	63.8
38.7	64.3
40	64.8
41.2	65.2
42.5	65.8
43.7	66.3
45	66.8
46.2	67.2
47.5	67.7
48.7	68.2
50	68.7
51.5	69.2
53	69.6
54.5	70.2
56	70.6
58	71.1
60	71.6
61.5	72.1
63	72.5
65	73
67	73.5
69	74
71	74.4
73	74.9
75	75.3
77.5	75.8
80	76.2
82.5	76.7
85	77.1
87.5	77.5
90	77.9
92.5	78.3
95	78.7
97.5	79
100	79.4
103	79.7
106	80
109	80.3
112	80.6
115	80.8
118	81
122	81.1
125	81.2
128	81.3
132	81.3
136	81.3
140	81.2
145	81.1
150	80.9
155	80.6
160	80.3
165	80
170	79.6
175	79.1
180	78.7
185	78.3
190	78
195	77.8
200	77.7
206	77.7
212	77.8
218	77.8
224	77.9
230	77.8
236	77.8
240	77.8
250	78
258	78.5
265	79.3
272	80.2
280	81
290	81.7
300	82.2
307	82.5
315	82.6
325	82.5
335	82.2
345	81.8
355	81.3
365	80.8
375	80.2
387	79.6
400	78.9
412	78.2
425	77.8
437	77.7
450	77.9
462	78.2
475	78.3
487	78.2
500	77.9
515	77.6
530	77.4
545	77.4
560	77.3
580	77.2
600	77.4
615	78.1
630	78.8
650	79.2
670	78.8
690	77.2
710	76.7
730	78.2
750	78.3
775	76.8
800	75.5
825	76
850	76.8
875	76.5
900	75.4
925	73.8
950	71.8
975	69.1
1000	65.8
1030	64.8
1060	65.5
1090	66.2
1120	67
1150	67.7
1180	67.2
1220	63.6
1250	57.4
1280	62.7
1320	67.5
1360	68.2
1400	66.7
1450	63.8
1500	63.1
1550	68.4
1600	69.4
1650	68.1
1700	67.3
1750	69
1800	66.6
1850	63.7
1900	67.8
1950	69.2
2000	67.7
2060	64.7
2120	63
2180	58.8
2240	56.7
2300	59.5
2360	59.2
2400	56.1
2500	54.1
2580	49.2
2650	50.9
2720	57.1
2800	57.5
2900	55.9
3000	55.8
3070	54.7
3150	53.2
3250	59.8
3350	59.1
3450	57.4
3550	61.5
3650	61.4
3750	64.7
3870	64.2
4000	64.7
4120	65
4250	64.5
4370	65.3
4500	66
4620	64
4750	63.4
4870	64.5
5000	61.2
5150	64.8
5300	61.2
5450	61.5
5600	61.7
5800	63.6
6000	64.2
6150	63.2
6300	63
6500	59.8
6700	54.1
6900	55.6
7100	55.5
7300	54.9
7500	56.4
7750	60.8
8000	59.5
8250	57.2
8500	52.4
8750	49.7
9000	47.4
9250	55.9
9500	56.6
9750	58.3
10000	62.5
10300	62.2
10600	62.1
10900	60.8
11200	62
11500	58.7
11800	53
12200	55.7
12500	55.9
12800	55.4
13200	49.2
13600	36.5
14000	41.4
14500	46.6
15000	48.9
15500	50.8
16000	46.7
16500	41.7
17000	36.3
17500	39.3
18000	34.9
18500	35.7
19000	33.1
19500	40.3
20000	51.5
20600	58.2
21200	48.7
21800	50.7
22400	51.4
