Frequency Spectrum for Input Signal

Data Shown:    V2-8 (Community)
Display Parameters:   Frequency: 1000Hz (1/24th Octave)   Mer: 0°  Par: 110°

Freq [Hz]	Signal Level [dBSPL]
22.4	53.7
23	54.2
23.6	54.8
24	55.5
25	56.2
25.8	56.9
26.5	57.5
27.2	58
28	58.6
29	59.1
30	59.6
30.7	60.2
31.5	60.8
32.5	61.3
33.5	61.8
34.5	62.3
35.5	62.7
36.5	63.3
37.5	63.8
38.7	64.3
40	64.8
41.2	65.2
42.5	65.7
43.7	66.2
45	66.7
46.2	67.2
47.5	67.6
48.7	68.1
50	68.6
51.5	69
53	69.5
54.5	70
56	70.5
58	70.9
60	71.4
61.5	71.9
63	72.3
65	72.7
67	73.2
69	73.7
71	74.1
73	74.6
75	75
77.5	75.5
80	75.9
82.5	76.4
85	76.8
87.5	77.2
90	77.6
92.5	78
95	78.4
97.5	78.8
100	79.1
103	79.5
106	79.8
109	80.1
112	80.4
115	80.6
118	80.8
122	81
125	81.1
128	81.2
132	81.3
136	81.3
140	81.2
145	81.2
150	81
155	80.8
160	80.5
165	80.2
170	79.9
175	79.5
180	79.1
185	78.8
190	78.5
195	78.4
200	78.3
206	78.4
212	78.4
218	78.5
224	78.5
230	78.4
236	78.3
240	78.2
250	78.3
258	78.7
265	79.4
272	80.2
280	80.9
290	81.6
300	82
307	82.2
315	82.2
325	82
335	81.6
345	81
355	80.3
365	79.5
375	78.7
387	77.9
400	77.1
412	76.4
425	76.1
437	76.3
450	76.8
462	77.2
475	77.4
487	77.3
500	76.8
515	76.3
530	76.1
545	76.2
560	76.5
580	76.7
600	76.8
615	76.9
630	76.6
650	75.6
670	73.8
690	71.6
710	71.9
730	75.3
750	77
775	76.7
800	75.8
825	76
850	75.8
875	74.1
900	71.3
925	69.4
950	69.6
975	69.9
1000	69.5
1030	69
1060	68.9
1090	69.3
1120	69.6
1150	69.1
1180	67.1
1220	64.2
1250	66.4
1280	69.6
1320	70.5
1360	69.9
1400	70
1450	71.9
1500	73.7
1550	74.8
1600	74.3
1650	75
1700	75.3
1750	74.7
1800	74.2
1850	73.5
1900	72.8
1950	70.9
2000	69.8
2060	69.8
2120	70.3
2180	69
2240	63.5
2300	63.9
2360	62.4
2400	60.8
2500	65
2580	64.6
2650	62.7
2720	64.1
2800	66.2
2900	64.2
3000	62.2
3070	65.1
3150	63.3
3250	65.2
3350	62.8
3450	61.4
3550	61.6
3650	62.3
3750	61.9
3870	63.5
4000	67
4120	67.6
4250	66.4
4370	66.1
4500	67.3
4620	63.2
4750	58.1
4870	58
5000	61.2
5150	64.5
5300	65.8
5450	65.1
5600	63.5
5800	63
6000	58.9
6150	58.4
6300	61.8
6500	60.4
6700	61.7
6900	64.5
7100	61.1
7300	62.9
7500	60.4
7750	59.3
8000	64.2
8250	60.3
8500	59.5
8750	54.3
9000	57
9250	60.5
9500	56.4
9750	53.4
10000	49.7
10300	54.5
10600	59.6
10900	58.2
11200	56.6
11500	51.3
11800	50.4
12200	51.8
12500	49.7
12800	49.1
13200	42.3
13600	44.2
14000	48.9
14500	52.6
15000	56.8
15500	52.2
16000	47.6
16500	45.6
17000	39.8
17500	41.2
18000	40.1
18500	38.6
19000	31.6
19500	40.7
20000	48.6
20600	55.2
21200	57
21800	55.5
22400	53.3
