Frequency Spectrum for Input Signal

Data Shown:    V2-3594 (Community)
Display Parameters:   Frequency: 1000Hz (1/24th Octave)   Mer: 0°  Par: 70°

Freq [Hz]	Signal Level [dBSPL]
22.4	72.5
23	72.9
23.6	73.3
24	73.6
25	74
25.8	74.4
26.5	74.7
27.2	75
28	75.4
29	75.6
30	76
30.7	76.3
31.5	76.7
32.5	77
33.5	77.4
34.5	77.6
35.5	77.9
36.5	78.4
37.5	78.8
38.7	79.1
40	79.5
41.2	79.8
42.5	80.2
43.7	80.6
45	81
46.2	81.3
47.5	81.7
48.7	82.1
50	82.6
51.5	83
53	83.4
54.5	83.8
56	84.2
58	84.6
60	85
61.5	85.5
63	86
65	86.4
67	86.9
69	87.3
71	87.8
73	88.3
75	88.8
77.5	89.3
80	89.8
82.5	90.2
85	90.8
87.5	91.3
90	91.9
92.5	92.3
95	92.8
97.5	93.2
100	93.6
103	93.9
106	94.2
109	94.3
112	94.3
115	94.3
118	94.2
122	94.1
125	94
128	93.8
132	93.5
136	93.2
140	92.8
145	92.4
150	92.1
155	91.6
160	91
165	90.2
170	89.5
175	88.9
180	88.4
185	88
190	88
195	88.3
200	89
206	89.9
212	90.9
218	91.4
224	91.6
230	91.6
236	91.5
240	91.3
250	90.9
258	90.4
265	89.8
272	89.2
280	88.7
290	88.5
300	88.6
307	88.9
315	89.4
325	89.8
335	90.1
345	90.4
355	90.6
365	90.9
375	91.3
387	91.5
400	91.4
412	91
425	90.3
437	89.7
450	89.5
462	89.5
475	89.2
487	88.4
500	87.1
515	85.9
530	85.6
545	86.6
560	87.8
580	88.7
600	88.8
615	88.2
630	87.1
650	86.2
670	86.1
690	86.2
710	86
730	85.3
750	84.3
775	83.4
800	82.6
825	82.1
850	81.9
875	81.6
900	81
925	80.1
950	79.4
975	80
1000	81
1030	81
1060	80.4
1090	80.3
1120	80.1
1150	79.4
1180	78.8
1220	77.8
1250	76.1
1280	75.9
1320	76.8
1360	77.6
1400	77.6
1450	78
1500	78.7
1550	78.2
1600	77
1650	77.4
1700	79.8
1750	80.7
1800	80.3
1850	80.6
1900	79.8
1950	77.3
2000	77
2060	78
2120	76.9
2180	74
2240	73.8
2300	76
2360	77.1
2400	77.7
2500	80
2580	81.8
2650	81.9
2720	80.6
2800	75.7
2900	69.9
3000	72.5
3070	75.6
3150	76.8
3250	79.2
3350	83.2
3450	86.1
3550	85.4
3650	83.4
3750	79.4
3870	79
4000	79
4120	79.2
4250	79.6
4370	78.5
4500	78.9
4620	78.2
4750	75
4870	78.6
5000	80
5150	75.6
5300	75
5450	75.6
5600	80.2
5800	88
6000	84.2
6150	81.9
6300	82.9
6500	80.6
6700	80.1
6900	83.4
7100	81.1
7300	79.6
7500	80.2
7750	76.6
8000	76.8
8250	80.4
8500	81.3
8750	79
9000	79.3
9250	82.2
9500	81.4
9750	74.4
10000	78.3
10300	80.6
10600	80.6
10900	77.9
11200	80.5
11500	79.6
11800	80.7
12200	74.7
12500	69.9
12800	71.1
13200	67.6
13600	76
14000	80.3
14500	78.6
15000	81
15500	82.4
16000	77.2
16500	77.2
17000	64.8
17500	68.6
18000	67.8
18500	65.2
19000	66.7
19500	63.1
20000	59.8
20600	58.2
21200	60
21800	66.2
22400	69.6
