Frequency Spectrum for Input Signal

Data Shown:    V2-3594 (Community)
Display Parameters:   Frequency: 1000Hz (1/24th Octave)   Mer: 90°  Par: 140°

Freq [Hz]	Signal Level [dBSPL]
22.4	72
23	72.4
23.6	72.8
24	73.1
25	73.5
25.8	73.9
26.5	74.2
27.2	74.5
28	74.8
29	75.1
30	75.4
30.7	75.7
31.5	76
32.5	76.4
33.5	76.6
34.5	76.9
35.5	77.2
36.5	77.5
37.5	77.8
38.7	78.1
40	78.4
41.2	78.7
42.5	79
43.7	79.4
45	79.7
46.2	80
47.5	80.3
48.7	80.6
50	81
51.5	81.3
53	81.6
54.5	82
56	82.3
58	82.7
60	83
61.5	83.4
63	83.8
65	84.2
67	84.6
69	85
71	85.4
73	85.8
75	86.3
77.5	86.7
80	87.2
82.5	87.6
85	88.1
87.5	88.6
90	89.1
92.5	89.5
95	90
97.5	90.3
100	90.6
103	91
106	91.2
109	91.3
112	91.3
115	91.3
118	91.3
122	91.2
125	91
128	90.9
132	90.6
136	90.3
140	90
145	89.8
150	89.5
155	89.2
160	88.8
165	88.3
170	87.9
175	87.6
180	87.5
185	87.3
190	87.4
195	87.7
200	88.2
206	89
212	89.9
218	90.3
224	90.5
230	90.6
236	90.6
240	90.5
250	90.3
258	89.9
265	89.4
272	88.6
280	87.7
290	86.5
300	85.1
307	83.6
315	82.6
325	82.6
335	83.3
345	84.1
355	84.7
365	85
375	85.2
387	85.3
400	85.3
412	85.1
425	84.8
437	84.1
450	83.2
462	82.4
475	82.2
487	82.8
500	83.5
515	83.1
530	81.1
545	79.1
560	76.9
580	75.5
600	75.4
615	73.9
630	68.9
650	61.6
670	68
690	71.8
710	73.3
730	74.1
750	73.8
775	72.1
800	70.5
825	69.4
850	67
875	62.6
900	61.6
925	64.7
950	68.3
975	71.4
1000	72.8
1030	71.9
1060	69.9
1090	70.2
1120	71.8
1150	73
1180	72.7
1220	71.2
1250	70.1
1280	70.2
1320	70.7
1360	71.6
1400	72.6
1450	72.7
1500	72.6
1550	71.9
1600	72
1650	73
1700	74.1
1750	73.6
1800	72.1
1850	71.7
1900	72.5
1950	73.4
2000	73.7
2060	72.7
2120	71.5
2180	70.2
2240	68.2
2300	68.7
2360	68.4
2400	68.1
2500	69
2580	68.8
2650	62.8
2720	63.7
2800	72.8
2900	76.8
3000	76.7
3070	74.4
3150	72.6
3250	68.6
3350	69.6
3450	71.7
3550	72.3
3650	70.7
3750	68.9
3870	63.5
4000	58.3
4120	61.6
4250	65.4
4370	65.5
4500	62.9
4620	63.6
4750	62.5
4870	65.9
5000	64.7
5150	65.8
5300	68.1
5450	66.6
5600	70.4
5800	68.9
6000	64.5
6150	67
6300	66
6500	59.3
6700	59.1
6900	63.6
7100	64.5
7300	64.9
7500	65.1
7750	59.9
8000	58.6
8250	62.7
8500	68.8
8750	64.6
9000	57.1
9250	60.1
9500	58.9
9750	63.1
10000	62.4
10300	62.6
10600	62.2
10900	62.1
11200	63.2
11500	58.6
11800	59.4
12200	63.4
12500	62
12800	60.3
13200	58
13600	53.2
14000	44.2
14500	47.3
15000	52.6
15500	56.9
16000	58.2
16500	53.6
17000	35.9
17500	44.6
18000	45.5
18500	42
19000	44.9
19500	44.2
20000	53.3
20600	49.5
21200	56.4
21800	58
22400	59.1
