"Directivity Index"
"Sound Power DI"		"Early Reflections DI"
"Frequency [Hz]"	"[dB] Directivity Index "	"Frequency [Hz]"	"[dB] Directivity Index "
20.5078	-14.1818	20.5078	-11.1927
21.9727	-8.82557	21.9727	-6.25828
23.4375	-11.4053	23.4375	-8.54381
24.9023	-6.66594	24.9023	-4.45185
26.3672	-5.15408	26.3672	-3.21948
27.832	-4.11148	27.832	-2.45129
29.2969	-3.22257	29.2969	-1.80904
30.7617	-3.25623	30.7617	-1.84024
32.2266	-2.9825	32.2266	-1.68662
33.6914	-2.20564	33.6914	-1.19624
35.1562	-2.22736	35.1562	-1.22063
36.6211	-1.89218	36.6211	-1.02149
38.0859	-1.88252	38.0859	-1.02462
39.5508	-1.61767	39.5508	-0.870585
41.0156	-1.29699	41.0156	-0.689338
42.4805	-1.63946	42.4805	-0.892077
43.9453	-1.39762	43.9453	-0.758224
45.4102	-1.31012	45.4102	-0.707796
46.875	-1.15139	46.875	-0.616995
48.3398	-1.15544	48.3398	-0.624169
51.2695	-1.03698	51.2695	-0.564107
52.7344	-0.927624	52.7344	-0.504402
54.1992	-0.849426	54.1992	-0.46217
55.6641	-0.809457	55.6641	-0.440004
58.5938	-0.73869	58.5938	-0.404402
60.0586	-0.685373	60.0586	-0.376125
62.9883	-0.624615	62.9883	-0.344613
64.4531	-0.579068	64.4531	-0.320406
67.3828	-0.518498	67.3828	-0.28828
68.8477	-0.495128	68.8477	-0.274565
71.7773	-0.436175	71.7773	-0.241878
74.707	-0.387428	74.707	-0.215174
77.6367	-0.328657	77.6367	-0.185448
79.1016	-0.312328	79.1016	-0.176733
82.0312	-0.273941	82.0312	-0.157075
84.9609	-0.263877	84.9609	-0.151084
87.8906	-0.26886	87.8906	-0.15391
90.8203	-0.00644386	90.8203	-0.0179832
95.2148	-0.171564	95.2148	-0.0971813
98.1445	-0.17265	98.1445	-0.101047
101.074	-0.160361	101.074	-0.0948537
105.469	-0.0989186	105.469	-0.0598735
108.398	0.0134667	108.398	0.000436098
112.793	0.149769	112.793	0.0675092
117.188	0.311525	117.188	0.14878
120.117	0.229342	120.117	0.109536
124.512	0.0127532	124.512	0.0030184
128.906	0.0856812	128.906	0.0393726
133.301	0.100787	133.301	0.0445917
139.16	0.102291	139.16	0.047619
143.555	0.13354	143.555	0.0662702
147.949	0.209969	147.949	0.104253
153.809	0.247666	153.809	0.124363
159.668	0.21452	159.668	0.105504
165.527	0.183748	165.527	0.0920132
171.387	0.301591	171.387	0.149602
177.246	0.380063	177.246	0.193376
183.105	0.309813	183.105	0.158564
188.965	0.320586	188.965	0.160152
196.289	0.408014	196.289	0.2042
203.613	0.36037	203.613	0.187362
210.938	0.345853	210.938	0.176892
218.262	-0.0042239	218.262	-0.000855912
225.586	-0.503358	225.586	-0.284176
232.91	-0.882361	232.91	-0.438734
241.699	0.802263	241.699	0.480563
250.488	0.969476	250.488	0.526199
259.277	1.03046	259.277	0.558328
268.066	0.988873	268.066	0.534369
276.855	1.09258	276.855	0.556001
287.109	1.06411	287.109	0.553838
297.363	1.14806	297.363	0.617238
307.617	1.28647	307.617	0.688025
319.336	1.31175	319.336	0.714171
329.59	1.45993	329.59	0.769641
341.309	1.5132	341.309	0.791614
353.027	1.84682	353.027	0.94989
366.211	1.7579	366.211	0.889161
379.395	1.8866	379.395	0.940368
392.578	1.89768	392.578	0.944419
405.762	2.06961	405.762	1.01768
420.41	2.35105	420.41	1.13066
435.059	2.22968	435.059	1.07041
451.172	2.63083	451.172	1.21145
465.82	2.68719	465.82	1.25357
483.398	2.80456	483.398	1.30377
499.512	2.5754	499.512	1.16074
517.09	2.75342	517.09	1.24275
536.133	2.82824	536.133	1.36973
555.176	3.44142	555.176	1.63125
574.219	3.00478	574.219	1.31762
594.727	2.90288	594.727	1.36632
615.234	3.31809	615.234	1.6164
637.207	2.96369	637.207	1.27147
659.18	2.65438	659.18	1.1659
682.617	2.58659	682.617	1.31604
707.52	3.10492	707.52	1.588
732.422	2.98282	732.422	1.88981
757.324	2.65351	757.324	1.66295
785.156	3.46902	785.156	2.15372
811.523	2.50597	811.523	1.66233
840.82	1.18283	840.82	-0.246818
870.117	2.71914	870.117	0.725443
900.879	4.0175	900.879	1.84565
933.105	3.48182	933.105	1.52927
965.332	4.53261	965.332	2.27356
1,000.49	4.96094	1,000.49	2.71413
1,035.64	5.20353	1,035.64	2.71669
1,072.27	4.47908	1,072.27	2.31014
1,108.89	5.24879	1,108.89	2.90729
1,148.44	4.2964	1,148.44	1.80627
1,189.45	5.20031	1,189.45	2.84476
1,230.47	5.23209	1,230.47	2.56621
1,274.41	4.66028	1,274.41	1.55936
1,319.82	5.56476	1,319.82	2.4145
1,366.7	4.98296	1,366.7	2.10422
1,413.57	5.42073	1,413.57	2.54586
1,463.38	5.78423	1,463.38	2.75853
1,516.11	5.61925	1,516.11	2.55306
1,568.85	4.91087	1,568.85	2.28121
1,624.51	5.27074	1,624.51	2.46165
1,681.64	5.30089	1,681.64	2.77137
1,741.7	5.78058	1,741.7	2.9316
1,803.22	6.06694	1,803.22	2.8914
1,866.21	6.21157	1,866.21	2.74055
1,932.13	5.95113	1,932.13	2.56571
1,999.51	6.09821	1,999.51	2.81552
2,069.82	6.37778	2,069.82	3.11998
2,143.07	6.47724	2,143.07	3.21016
2,219.24	6.37617	2,219.24	2.83467
2,296.88	5.21401	2,296.88	1.61838
2,378.91	5.15594	2,378.91	1.54638
2,462.4	6.20133	2,462.4	2.70167
2,548.83	6.81309	2,548.83	3.22925
2,639.65	6.33718	2,639.65	2.49126
2,731.93	5.59018	2,731.93	1.58615
2,828.61	5.65767	2,828.61	1.84414
2,928.22	6.12051	2,928.22	2.47691
3,030.76	6.37573	3,030.76	2.68255
3,137.7	6.5756	3,137.7	2.83534
3,249.02	6.34245	3,249.02	2.70897
3,363.28	6.18321	3,363.28	2.4888
3,481.93	6.77248	3,481.93	2.9695
3,604.98	6.82803	3,604.98	3.03737
3,732.42	7.28647	3,732.42	3.56479
3,864.26	7.53356	3,864.26	3.53666
4,000.49	6.96445	4,000.49	2.90973
4,141.11	7.66725	4,141.11	3.69609
4,287.6	7.81419	4,287.6	3.67709
4,438.48	7.7911	4,438.48	3.56601
4,595.21	7.80154	4,595.21	3.66544
4,756.35	7.99385	4,756.35	3.9135
4,924.8	7.98403	4,924.8	4.02144
5,097.66	7.48141	5,097.66	3.73482
5,277.83	7.6842	5,277.83	3.87959
5,463.87	7.31058	5,463.87	4.02208
5,657.23	7.14486	5,657.23	3.83407
5,856.45	6.58774	5,856.45	3.08307
6,062.99	6.84455	6,062.99	3.06447
6,276.86	6.73169	6,276.86	3.00523
6,498.05	7.08129	6,498.05	3.46113
6,726.56	7.41522	6,726.56	3.7859
6,963.87	7.5336	6,963.87	3.56958
7,209.96	7.80792	7,209.96	3.61875
7,464.84	8.25298	7,464.84	3.90996
7,727.05	8.65769	7,727.05	4.07551
7,999.51	9.30525	7,999.51	4.70785
8,282.23	8.76474	8,282.23	4.23337
8,573.73	7.23361	8,573.73	3.24719
8,876.95	7.09668	8,876.95	2.76716
9,188.96	6.93973	9,188.96	2.4647
9,514.16	7.13819	9,514.16	2.51978
9,849.61	7.2182	9,849.61	2.80243
10,196.8	7.55601	10,196.8	3.21851
10,555.7	8.01411	10,555.7	3.74808
10,927.7	7.95194	10,927.7	3.57038
11,313	7.65677	11,313	3.43326
11,712.9	7.50784	11,712.9	3.47301
12,126	7.64065	12,126	3.55803
12,553.7	7.98671	12,553.7	3.90669
12,996.1	8.38674	12,996.1	4.22683
13,454.6	8.46686	13,454.6	4.2523
13,929.2	8.18925	13,929.2	3.77807
14,419.9	7.80231	14,419.9	3.47068
14,928.2	7.5783	14,928.2	3.27441
15,455.6	7.16173	15,455.6	2.93694
16,000.5	7.63975	16,000.5	3.42529
16,564.5	7.72231	16,564.5	3.23979
17,148.9	7.34254	17,148.9	3.16135
17,752.4	6.54273	17,752.4	2.54432
18,379.4	6.6843	18,379.4	2.63817
19,026.9	7.28585	19,026.9	3.28735
19,697.8	7.56269	19,697.8	3.56005
19,999.5	7.42523	19,999.5	3.41834
