Frequency Spectrum for Input Signal

Data Shown:    V2-6 (Community)
Display Parameters:   Frequency: 1000Hz (1/24th Octave)   Mer: 270°  Par: 30°

Freq [Hz]	Signal Level [dBSPL]
22.4	38
23	38
23.6	38.2
24	39.8
25	41.2
25.8	42.3
26.5	43.3
27.2	44.2
28	44.9
29	45.6
30	46.5
30.7	47.9
31.5	49
32.5	50
33.5	50.8
34.5	51.5
35.5	52.2
36.5	53.3
37.5	54.2
38.7	55.1
40	55.8
41.2	56.5
42.5	57.3
43.7	58.2
45	58.9
46.2	59.6
47.5	60.2
48.7	61
50	61.8
51.5	62.5
53	63.1
54.5	63.8
56	64.5
58	65.2
60	65.8
61.5	66.5
63	67.1
65	67.7
67	68.4
69	69
71	69.6
73	70.3
75	70.9
77.5	71.4
80	72.1
82.5	72.6
85	73.2
87.5	73.8
90	74.3
92.5	74.9
95	75.4
97.5	75.9
100	76.4
103	76.9
106	77.4
109	77.8
112	78.2
115	78.6
118	79
122	79.4
125	79.6
128	79.9
132	80.2
136	80.3
140	80.5
145	80.5
150	80.6
155	80.6
160	80.5
165	80.4
170	80.2
175	80.1
180	80
185	79.9
190	79.8
195	79.9
200	80.1
206	80.4
212	80.7
218	81
224	81.2
230	81.3
236	81.4
240	81.2
250	80.9
258	80.4
265	79.8
272	79.1
280	78.4
290	77.9
300	77.5
307	77.4
315	77.3
325	77.4
335	77.5
345	77.5
355	77.5
365	77.3
375	77.1
387	76.7
400	76.4
412	76.4
425	76.9
437	77.7
450	78.3
462	78.5
475	78.2
487	77.6
500	76.8
515	76.3
530	76.2
545	76.5
560	76.7
580	77
600	77.4
615	77.8
630	77.9
650	77.8
670	77.4
690	77
710	76.8
730	76.6
750	75.6
775	72.7
800	70.8
825	69.2
850	67.4
875	72.8
900	76
925	80.4
950	81.8
975	81
1000	78.7
1030	76.1
1060	75.4
1090	75.5
1120	74
1150	70.8
1180	65.9
1220	69.3
1250	73.7
1280	77.3
1320	80.2
1360	81.5
1400	82.9
1450	84.6
1500	84.7
1550	85.2
1600	86.1
1650	86.7
1700	86.4
1750	85.5
1800	84.8
1850	85.1
1900	83.8
1950	82.8
2000	81.9
2060	81.6
2120	79.7
2180	80
2240	80
2300	80.2
2360	78
2400	75.6
2500	75.4
2580	74.7
2650	74
2720	75.3
2800	76.3
2900	75.8
3000	75.2
3070	75
3150	75.9
3250	75.8
3350	76.3
3450	75.4
3550	76.3
3650	76.2
3750	77.5
3870	79
4000	79.6
4120	80.7
4250	79.6
4370	81
4500	80.2
4620	79.4
4750	76.3
4870	77.1
5000	76.7
5150	77.5
5300	75.8
5450	73.6
5600	76.5
5800	76.4
6000	75.7
6150	76.5
6300	77.3
6500	75.4
6700	75.3
6900	75.3
7100	75.5
7300	76.1
7500	75.4
7750	74.2
8000	74.9
8250	74.4
8500	75.4
8750	71.9
9000	64.6
9250	78.9
9500	80.4
9750	79.4
10000	80.8
10300	82.1
10600	83.8
10900	81.4
11200	84.1
11500	82.8
11800	78.4
12200	81.4
12500	80.9
12800	78.8
13200	73.2
13600	72.2
14000	72.3
14500	72.7
15000	74.4
15500	78.1
16000	76
16500	75.1
17000	71.6
17500	69
18000	68.5
18500	64.5
19000	64.3
19500	63.6
20000	54.4
20600	57.6
21200	61.5
21800	65.4
22400	53
