Frequency Spectrum for Input Signal

Data Shown:    V2-6 (Community)
Display Parameters:   Frequency: 1000Hz (1/24th Octave)   Mer: 180°  Par: 110°

Freq [Hz]	Signal Level [dBSPL]
22.4	35.8
23	35.7
23.6	36
24	37.5
25	38.9
25.8	40.1
26.5	41.1
27.2	41.9
28	42.7
29	43.4
30	44.3
30.7	45.7
31.5	46.8
32.5	47.8
33.5	48.6
34.5	49.3
35.5	50.1
36.5	51.1
37.5	52.1
38.7	53
40	53.7
41.2	54.4
42.5	55.3
43.7	56.2
45	57
46.2	57.6
47.5	58.3
48.7	59.2
50	60
51.5	60.7
53	61.3
54.5	62.1
56	62.8
58	63.5
60	64.1
61.5	64.9
63	65.5
65	66.2
67	66.9
69	67.5
71	68.1
73	68.8
75	69.4
77.5	70
80	70.6
82.5	71.2
85	71.8
87.5	72.3
90	72.9
92.5	73.4
95	74
97.5	74.5
100	74.9
103	75.4
106	75.9
109	76.3
112	76.7
115	77.1
118	77.5
122	77.8
125	78.1
128	78.3
132	78.5
136	78.7
140	78.8
145	78.9
150	78.9
155	78.8
160	78.8
165	78.6
170	78.4
175	78.3
180	78.1
185	78
190	78
195	78
200	78.2
206	78.5
212	78.8
218	79
224	79.3
230	79.4
236	79.5
240	79.3
250	79
258	78.6
265	78
272	77.3
280	76.6
290	76
300	75.6
307	75.3
315	75.1
325	74.9
335	74.7
345	74.5
355	74.2
365	73.9
375	73.4
387	73
400	72.7
412	72.8
425	73.3
437	74.1
450	74.8
462	75
475	74.7
487	73.9
500	72.7
515	71.7
530	71.2
545	71.1
560	71.4
580	72
600	72.8
615	73.5
630	73.9
650	73.7
670	73.3
690	72.6
710	72
730	71.4
750	70.7
775	69.2
800	69.7
825	72.6
850	72
875	66.6
900	62.1
925	67.5
950	71.5
975	72.5
1000	71.8
1030	70.5
1060	70.9
1090	71.7
1120	70.8
1150	69.2
1180	67.3
1220	64.5
1250	62.8
1280	64.1
1320	65.4
1360	63.9
1400	61.9
1450	61.9
1500	65.7
1550	69.4
1600	71.4
1650	72.4
1700	72.8
1750	72.7
1800	73.2
1850	74.6
1900	74.4
1950	73.5
2000	71.1
2060	71.8
2120	70.5
2180	70.4
2240	69.9
2300	69.4
2360	67.6
2400	61.6
2500	60.7
2580	60.8
2650	58
2720	56.5
2800	61.1
2900	59.2
3000	60
3070	64.2
3150	64.1
3250	67.8
3350	67.4
3450	66.1
3550	66.6
3650	65.1
3750	63.7
3870	62.5
4000	62
4120	61.8
4250	58.2
4370	59.8
4500	63.1
4620	61.6
4750	61.3
4870	63.3
5000	62.8
5150	65.8
5300	62.3
5450	59.2
5600	62.4
5800	61.3
6000	60
6150	63.4
6300	64.1
6500	63.4
6700	63.8
6900	63.8
7100	59.1
7300	62
7500	60.8
7750	60.1
8000	59.2
8250	52.8
8500	53.7
8750	51.7
9000	55.5
9250	59.4
9500	58.5
9750	53.9
10000	52.8
10300	57.1
10600	58.4
10900	53.9
11200	55
11500	53.5
11800	55.4
12200	55.3
12500	55.6
12800	52
13200	47.1
13600	40.8
14000	46.4
14500	50.2
15000	51.2
15500	54
16000	50.9
16500	49.8
17000	43.9
17500	48.1
18000	42.4
18500	29.1
19000	31.2
19500	36.6
20000	49.3
20600	55.5
21200	58.4
21800	59.8
22400	49.7
