Frequency Spectrum for Input Signal

Data Shown:    V2-6 (Community)
Display Parameters:   Frequency: 1000Hz (1/24th Octave)   Mer: 90°  Par: 80°

Freq [Hz]	Signal Level [dBSPL]
22.4	36.3
23	36.3
23.6	36.5
24	38
25	39.5
25.8	40.6
26.5	41.6
27.2	42.5
28	43.3
29	44
30	44.9
30.7	46.3
31.5	47.4
32.5	48.4
33.5	49.2
34.5	49.9
35.5	50.7
36.5	51.7
37.5	52.7
38.7	53.5
40	54.3
41.2	55
42.5	55.8
43.7	56.7
45	57.4
46.2	58.1
47.5	58.8
48.7	59.6
50	60.4
51.5	61
53	61.7
54.5	62.4
56	63.1
58	63.8
60	64.4
61.5	65.1
63	65.8
65	66.3
67	67
69	67.6
71	68.2
73	68.9
75	69.4
77.5	70
80	70.6
82.5	71.2
85	71.7
87.5	72.3
90	72.8
92.5	73.4
95	73.8
97.5	74.4
100	74.8
103	75.3
106	75.7
109	76.1
112	76.6
115	76.9
118	77.3
122	77.6
125	77.9
128	78.1
132	78.3
136	78.5
140	78.6
145	78.6
150	78.6
155	78.6
160	78.5
165	78.4
170	78.2
175	78
180	77.9
185	77.7
190	77.7
195	77.8
200	77.9
206	78.1
212	78.4
218	78.7
224	78.9
230	79.1
236	79.1
240	79
250	78.9
258	78.6
265	78.2
272	77.9
280	77.6
290	77.4
300	77.5
307	77.7
315	77.9
325	78.1
335	78.2
345	78.1
355	77.9
365	77.5
375	76.9
387	76.2
400	75.5
412	75.2
425	75.4
437	76
450	76.5
462	76.8
475	76.7
487	76.2
500	75.4
515	74.8
530	74.4
545	74.1
560	73.8
580	73.8
600	74
615	74.3
630	74.5
650	74.3
670	74
690	73.9
710	74.3
730	74.8
750	74.3
775	71.8
800	70.7
825	72.8
850	73.8
875	72.4
900	72.2
925	74.7
950	75.2
975	74.3
1000	72.8
1030	70.9
1060	69.6
1090	67.3
1120	62.5
1150	54.8
1180	55.4
1220	62.3
1250	65.5
1280	68.9
1320	71.1
1360	70.5
1400	71.2
1450	75.1
1500	78.3
1550	79.8
1600	79.3
1650	78.8
1700	79.2
1750	79.4
1800	77.5
1850	76.2
1900	75.8
1950	75.3
2000	73.2
2060	73
2120	72.9
2180	73.9
2240	72.4
2300	71.5
2360	64.4
2400	58.1
2500	61
2580	63.3
2650	65.7
2720	66.3
2800	64.9
2900	61.5
3000	60.1
3070	63.3
3150	66.2
3250	68.6
3350	68.9
3450	66.6
3550	67
3650	65.7
3750	66.9
3870	69.4
4000	70.5
4120	69.2
4250	67.1
4370	66.5
4500	66.2
4620	66.1
4750	63.5
4870	61.4
5000	64.3
5150	67.6
5300	67.2
5450	62.5
5600	67.9
5800	67.5
6000	69.5
6150	69
6300	67.5
6500	65.1
6700	65.6
6900	62.1
7100	63
7300	65.1
7500	64.4
7750	62.9
8000	61.6
8250	62.8
8500	61.1
8750	56.1
9000	54.4
9250	67.2
9500	64.2
9750	65.7
10000	68.1
10300	70.4
10600	71.6
10900	67.7
11200	70.8
11500	67.9
11800	63.2
12200	68
12500	68.7
12800	65.6
13200	57.4
13600	55
14000	57.2
14500	56.9
15000	56.5
15500	61.7
16000	56.6
16500	54.8
17000	51.4
17500	51
18000	46.4
18500	38.4
19000	40.3
19500	45.2
20000	48.6
20600	54.7
21200	55.1
21800	62.4
22400	47.6
