Frequency Spectrum for Input Signal

Data Shown:    V2-6 (Community)
Display Parameters:   Frequency: 1000Hz (1/24th Octave)   Mer: 180°  Par: 30°

Freq [Hz]	Signal Level [dBSPL]
22.4	38
23	38
23.6	38.2
24	39.7
25	41.1
25.8	42.2
26.5	43.2
27.2	44.1
28	44.8
29	45.5
30	46.4
30.7	47.8
31.5	48.9
32.5	49.8
33.5	50.6
34.5	51.4
35.5	52.1
36.5	53.1
37.5	54.1
38.7	54.9
40	55.6
41.2	56.2
42.5	57
43.7	57.9
45	58.6
46.2	59.3
47.5	59.9
48.7	60.7
50	61.5
51.5	62.1
53	62.7
54.5	63.5
56	64.2
58	64.8
60	65.4
61.5	66.1
63	66.7
65	67.3
67	68
69	68.6
71	69.2
73	69.9
75	70.5
77.5	71
80	71.6
82.5	72.2
85	72.8
87.5	73.4
90	73.9
92.5	74.5
95	75
97.5	75.5
100	76
103	76.5
106	77
109	77.4
112	77.8
115	78.2
118	78.6
122	78.9
125	79.2
128	79.5
132	79.7
136	79.9
140	80
145	80.1
150	80.2
155	80.1
160	80.1
165	80
170	79.8
175	79.7
180	79.5
185	79.4
190	79.4
195	79.5
200	79.6
206	79.9
212	80.2
218	80.5
224	80.8
230	80.9
236	81
240	80.9
250	80.6
258	80.3
265	79.8
272	79.3
280	78.9
290	78.6
300	78.5
307	78.6
315	78.7
325	78.9
335	79
345	79
355	78.9
365	78.6
375	78.2
387	77.7
400	77.3
412	77.3
425	77.7
437	78.5
450	79.2
462	79.5
475	79.3
487	78.7
500	77.9
515	77.4
530	77.4
545	77.7
560	78
580	78.4
600	78.9
615	79.3
630	79.6
650	79.6
670	79.5
690	79.3
710	79.2
730	78.8
750	77.6
775	75.3
800	75.6
825	78.6
850	78.5
875	74.6
900	74
925	78.8
950	81.3
975	81.3
1000	79.7
1030	77.5
1060	77.9
1090	79.8
1120	80.2
1150	79.8
1180	79.3
1220	77.7
1250	76.4
1280	77.9
1320	79.4
1360	78.9
1400	79.1
1450	81.2
1500	82.4
1550	83.3
1600	83.9
1650	84.2
1700	84.4
1750	84.4
1800	84.2
1850	85.3
1900	85.5
1950	85.6
2000	85.2
2060	86.2
2120	85.9
2180	85.7
2240	84.8
2300	84.9
2360	83.4
2400	81.3
2500	81.3
2580	80.7
2650	79.6
2720	80.4
2800	80.2
2900	79.9
3000	79.3
3070	79.4
3150	78.5
3250	79
3350	77.4
3450	75.9
3550	74.4
3650	76
3750	76.5
3870	77
4000	77.8
4120	78.7
4250	79.5
4370	80.1
4500	80.4
4620	80.1
4750	79.6
4870	81.3
5000	81.3
5150	82.8
5300	81.6
5450	78.8
5600	82.4
5800	83.6
6000	82.6
6150	82.9
6300	84
6500	82.9
6700	81.8
6900	81.7
7100	81.5
7300	82.5
7500	82.6
7750	82.5
8000	82.7
8250	81.1
8500	81.9
8750	81
9000	84.6
9250	87.5
9500	85.1
9750	83.3
10000	84.1
10300	85.8
10600	85.6
10900	81.6
11200	82.1
11500	80.7
11800	79.5
12200	81.6
12500	80.7
12800	75.8
13200	69
13600	69.8
14000	71.3
14500	71.3
15000	69.7
15500	74.1
16000	72.9
16500	72.1
17000	64.8
17500	70.3
18000	66
18500	57
19000	61.6
19500	63.6
20000	62.7
20600	63.4
21200	60.4
21800	66.9
22400	56.9
