Frequency Spectrum for Input Signal

Data Shown:    V2-6 (Community)
Display Parameters:   Frequency: 1000Hz (1/24th Octave)   Mer: 90°  Par: 130°

Freq [Hz]	Signal Level [dBSPL]
22.4	35.3
23	35.3
23.6	35.4
24	37
25	38.4
25.8	39.5
26.5	40.4
27.2	41.2
28	42
29	42.6
30	43.5
30.7	44.8
31.5	46
32.5	46.9
33.5	47.6
34.5	48.3
35.5	49
36.5	50.1
37.5	51.1
38.7	51.9
40	52.7
41.2	53.3
42.5	54.2
43.7	55.1
45	55.8
46.2	56.5
47.5	57.2
48.7	58.1
50	58.9
51.5	59.7
53	60.4
54.5	61.2
56	61.9
58	62.6
60	63.3
61.5	64.1
63	64.8
65	65.5
67	66.2
69	66.9
71	67.5
73	68.2
75	68.9
77.5	69.5
80	70.1
82.5	70.7
85	71.3
87.5	71.9
90	72.5
92.5	73
95	73.6
97.5	74.1
100	74.5
103	75
106	75.5
109	75.9
112	76.3
115	76.7
118	77
122	77.3
125	77.6
128	77.8
132	78
136	78.1
140	78.2
145	78.2
150	78.2
155	78.2
160	78
165	77.9
170	77.7
175	77.5
180	77.3
185	77.2
190	77.1
195	77.2
200	77.3
206	77.6
212	77.9
218	78.2
224	78.5
230	78.7
236	78.8
240	78.8
250	78.7
258	78.5
265	78.2
272	77.8
280	77.4
290	77.2
300	77.1
307	77.2
315	77.2
325	77.2
335	77.1
345	76.9
355	76.5
365	76
375	75.2
387	74.4
400	73.7
412	73.3
425	73.4
437	73.9
450	74.3
462	74.4
475	74.1
487	73.5
500	72.6
515	71.8
530	71.2
545	70.8
560	70.6
580	70.6
600	71
615	71.5
630	71.9
650	71.9
670	71.8
690	71.7
710	72.1
730	72.7
750	72.5
775	70.4
800	69.6
825	70.7
850	68.4
875	63.3
900	62.8
925	67.2
950	69.8
975	70.7
1000	70.6
1030	69.8
1060	69.3
1090	66.9
1120	61.2
1150	52.4
1180	51.5
1220	60.2
1250	63.5
1280	65.6
1320	65.8
1360	63.2
1400	62.1
1450	65.2
1500	69
1550	71.9
1600	72.4
1650	71.6
1700	71.9
1750	73.2
1800	72.2
1850	70.9
1900	69
1950	67.5
2000	66.9
2060	69
2120	67.1
2180	62.3
2240	56.4
2300	51.5
2360	55.1
2400	54.4
2500	59.2
2580	60.3
2650	58.3
2720	58.2
2800	59.2
2900	60.6
3000	61.6
3070	62.2
3150	58.9
3250	62.6
3350	64.2
3450	60.6
3550	58.1
3650	58.8
3750	59.1
3870	61.4
4000	63
4120	60.2
4250	57.9
4370	56.1
4500	56.2
4620	54.9
4750	48.2
4870	58.4
5000	59.1
5150	63.5
5300	61.4
5450	56.5
5600	63.4
5800	64.8
6000	65.3
6150	63
6300	62.5
6500	59.3
6700	58.6
6900	60.1
7100	58.1
7300	61.2
7500	56.9
7750	55.4
8000	54.7
8250	56.2
8500	54.5
8750	52
9000	54.2
9250	60
9500	59.3
9750	56.6
10000	56.8
10300	60.2
10600	60.8
10900	57.9
11200	60.5
11500	60.8
11800	54.1
12200	58.5
12500	60.6
12800	58.4
13200	48
13600	42.2
14000	45.9
14500	46.7
15000	48.2
15500	52.2
16000	45.2
16500	43.7
17000	41.8
17500	41.7
18000	38.8
18500	32.9
19000	28.7
19500	37.1
20000	49.1
20600	52.4
21200	54
21800	58.6
22400	49.5
