Frequency Spectrum for Input Signal

Data Shown:    V2-28 (Community)
Display Parameters:   Frequency: 1000Hz (1/24th Octave)   Mer: 180°  Par: 150°

Freq [Hz]	Signal Level [dBSPL]
22.4	57.8
23	58.4
23.6	59
24	59.8
25	60.6
25.8	61.3
26.5	61.9
27.2	62.6
28	63.2
29	63.7
30	64.3
30.7	64.9
31.5	65.5
32.5	66.1
33.5	66.6
34.5	67.1
35.5	67.6
36.5	68.2
37.5	68.7
38.7	69.2
40	69.7
41.2	70.2
42.5	70.7
43.7	71.2
45	71.7
46.2	72.2
47.5	72.6
48.7	73.2
50	73.6
51.5	74.1
53	74.5
54.5	75
56	75.5
58	76
60	76.4
61.5	76.9
63	77.4
65	77.8
67	78.3
69	78.8
71	79.2
73	79.7
75	80.1
77.5	80.5
80	81
82.5	81.4
85	81.8
87.5	82.2
90	82.6
92.5	83
95	83.4
97.5	83.7
100	84.1
103	84.4
106	84.7
109	85
112	85.2
115	85.4
118	85.6
122	85.8
125	85.9
128	86
132	86
136	86
140	85.9
145	85.7
150	85.5
155	85.2
160	84.9
165	84.5
170	84
175	83.5
180	83.1
185	82.8
190	82.6
195	82.8
200	83.2
206	83.8
212	84.4
218	85
224	85.6
230	86
236	86.3
240	86.4
250	86.3
258	86
265	85.5
272	84.8
280	84
290	83.1
300	82.5
307	82.2
315	82.3
325	82.7
335	83.1
345	83.3
355	83.3
365	83
375	82.4
387	81.5
400	80.4
412	79.1
425	78
437	77.5
450	77.7
462	78.2
475	78.5
487	78.4
500	77.6
515	76.3
530	75.2
545	74.3
560	73
580	71
600	69
615	67.8
630	68.1
650	69.2
670	69.9
690	68
710	65
730	68.6
750	69.3
775	69.4
800	69
825	68.3
850	67.2
875	64.7
900	60.6
925	59.6
950	62.6
975	65
1000	66.6
1030	68
1060	69.2
1090	70
1120	70.8
1150	71.7
1180	71.6
1220	71.3
1250	71.4
1280	71.4
1320	73
1360	74.2
1400	73.2
1450	72.3
1500	71.9
1550	72.5
1600	75.2
1650	78.1
1700	80.2
1750	79.9
1800	78.4
1850	77.3
1900	77.2
1950	78.1
2000	77.1
2060	77.3
2120	80.9
2180	80.2
2240	78.1
2300	76.2
2360	75
2400	74.2
2500	70.5
2580	68.7
2650	69
2720	65.3
2800	67.8
2900	63.7
3000	54.8
3070	62.2
3150	59.4
3250	58.9
3350	57.6
3450	56.5
3550	65.6
3650	64.6
3750	61.6
3870	62.9
4000	66.6
4120	69.2
4250	67.4
4370	69.5
4500	67.8
4620	67.7
4750	62.1
4870	55.4
5000	59.3
5150	60.3
5300	61.1
5450	57.1
5600	51.1
5800	56.6
6000	57.7
6150	57.2
6300	63.7
6500	65.2
6700	63.6
6900	68.7
7100	67.1
7300	66
7500	63.4
7750	61.5
8000	63.3
8250	58.4
8500	66.5
8750	61.4
9000	62.8
9250	59.7
9500	59
9750	58.8
10000	56.9
10300	62.5
10600	64.1
10900	61
11200	62.3
11500	54.2
11800	56.4
12200	54.9
12500	60.5
12800	59.8
13200	50.3
13600	45.6
14000	47.3
14500	53
15000	52.1
15500	47.3
16000	44.7
16500	45.1
17000	44.8
17500	41.4
18000	40.7
18500	33.6
19000	35.6
19500	40.2
20000	47.9
20600	52.9
21200	57.1
21800	63.6
22400	53.4
