Frequency Spectrum for Input Signal

Data Shown:    V2-28 (Community)
Display Parameters:   Frequency: 1000Hz (1/24th Octave)   Mer: 0°  Par: 140°

Freq [Hz]	Signal Level [dBSPL]
22.4	57.6
23	58.2
23.6	58.8
24	59.6
25	60.4
25.8	61.1
26.5	61.8
27.2	62.4
28	63
29	63.5
30	64.1
30.7	64.7
31.5	65.4
32.5	65.9
33.5	66.4
34.5	66.9
35.5	67.4
36.5	68
37.5	68.6
38.7	69.1
40	69.6
41.2	70.1
42.5	70.6
43.7	71.1
45	71.6
46.2	72.1
47.5	72.6
48.7	73.1
50	73.6
51.5	74
53	74.5
54.5	75
56	75.5
58	76
60	76.4
61.5	76.9
63	77.4
65	77.8
67	78.3
69	78.8
71	79.2
73	79.7
75	80.1
77.5	80.6
80	81
82.5	81.4
85	81.9
87.5	82.3
90	82.7
92.5	83.1
95	83.4
97.5	83.8
100	84.1
103	84.4
106	84.7
109	85
112	85.3
115	85.5
118	85.7
122	85.8
125	85.9
128	86
132	86
136	86
140	85.9
145	85.8
150	85.5
155	85.2
160	84.9
165	84.5
170	84
175	83.5
180	83.1
185	82.7
190	82.6
195	82.7
200	83.1
206	83.7
212	84.3
218	85
224	85.5
230	85.9
236	86.2
240	86.2
250	86.1
258	85.8
265	85.3
272	84.6
280	83.7
290	82.8
300	82.2
307	81.8
315	81.9
325	82.2
335	82.6
345	82.7
355	82.6
365	82.3
375	81.6
387	80.7
400	79.6
412	78.3
425	77.3
437	76.9
450	77.2
462	77.7
475	78
487	77.7
500	76.6
515	74.9
530	73.3
545	71.9
560	70.4
580	69.5
600	70.1
615	71.6
630	73.3
650	74.3
670	74.2
690	71.3
710	67.4
730	70.4
750	71.1
775	71.1
800	70.4
825	69.4
850	68.6
875	68.4
900	69
925	69.5
950	69.9
975	70.2
1000	70.7
1030	71.5
1060	72.4
1090	73.2
1120	74
1150	74.6
1180	74.1
1220	73.8
1250	74.5
1280	74.8
1320	76
1360	76.7
1400	75.9
1450	75.3
1500	75
1550	74.7
1600	76.1
1650	78.4
1700	80
1750	79.4
1800	77.6
1850	76.5
1900	76.8
1950	76.7
2000	74
2060	73
2120	78.2
2180	77.6
2240	74.2
2300	68.7
2360	69.4
2400	69.9
2500	65.4
2580	66.2
2650	62.8
2720	65.1
2800	67.7
2900	68.5
3000	70.4
3070	66.8
3150	65
3250	65.2
3350	66.8
3450	65.8
3550	58.3
3650	56.3
3750	62.1
3870	61
4000	63.4
4120	66.8
4250	65.7
4370	60.8
4500	64.7
4620	62.5
4750	57.7
4870	60.8
5000	58.9
5150	59.6
5300	61.9
5450	62.4
5600	67.1
5800	64.4
6000	61.9
6150	64.6
6300	66.6
6500	64.9
6700	64.3
6900	65.6
7100	65
7300	59.9
7500	59
7750	58.1
8000	60.5
8250	66.4
8500	64.8
8750	59.7
9000	60.8
9250	54.6
9500	58.1
9750	55.5
10000	55.9
10300	58.2
10600	54.8
10900	57.9
11200	62
11500	55.1
11800	56.6
12200	55.2
12500	55.2
12800	54.6
13200	48.5
13600	48.5
14000	47.3
14500	49.6
15000	54.1
15500	51.8
16000	46.2
16500	44.4
17000	41.2
17500	41.7
18000	43.1
18500	36
19000	34.8
19500	40.3
20000	46.5
20600	46.6
21200	54.9
21800	65.5
22400	51.9
