Frequency Spectrum for Input Signal

Data Shown:    V2-28 (Community)
Display Parameters:   Frequency: 1000Hz (1/24th Octave)   Mer: 180°  Par: 30°

Freq [Hz]	Signal Level [dBSPL]
22.4	62.1
23	62.5
23.6	63
24	63.5
25	64
25.8	64.5
26.5	64.9
27.2	65.4
28	65.8
29	66.2
30	66.6
30.7	67.1
31.5	67.6
32.5	68
33.5	68.4
34.5	68.8
35.5	69.2
36.5	69.7
37.5	70.2
38.7	70.7
40	71.1
41.2	71.5
42.5	72
43.7	72.5
45	73
46.2	73.4
47.5	73.9
48.7	74.4
50	74.9
51.5	75.4
53	75.8
54.5	76.3
56	76.8
58	77.3
60	77.8
61.5	78.3
63	78.8
65	79.3
67	79.8
69	80.3
71	80.8
73	81.3
75	81.8
77.5	82.2
80	82.7
82.5	83.2
85	83.6
87.5	84.1
90	84.5
92.5	85
95	85.4
97.5	85.8
100	86.2
103	86.5
106	86.9
109	87.2
112	87.5
115	87.7
118	88
122	88.1
125	88.3
128	88.4
132	88.4
136	88.5
140	88.4
145	88.3
150	88.1
155	87.9
160	87.5
165	87.1
170	86.7
175	86.3
180	85.9
185	85.5
190	85.5
195	85.6
200	86.1
206	86.7
212	87.4
218	88.1
224	88.7
230	89.2
236	89.5
240	89.6
250	89.6
258	89.4
265	89
272	88.4
280	87.8
290	87.1
300	86.7
307	86.6
315	87
325	87.7
335	88.4
345	89
355	89.5
365	89.6
375	89.6
387	89.3
400	88.7
412	88
425	87.4
437	87.2
450	87.5
462	88
475	88.2
487	87.9
500	87.2
515	86.4
530	86.3
545	86.8
560	87.4
580	87.8
600	88
615	88.2
630	88.2
650	87.5
670	85.5
690	80.8
710	78
730	84.7
750	87.7
775	88.6
800	88.3
825	87.8
850	87.4
875	86.8
900	85.6
925	84.4
950	83.6
975	83.6
1000	83.7
1030	83.7
1060	83.9
1090	84.3
1120	84.5
1150	84.2
1180	83.2
1220	83.7
1250	85.4
1280	86
1320	87
1360	87.9
1400	87.5
1450	87.3
1500	87.5
1550	87.9
1600	88.9
1650	89.1
1700	89.2
1750	88.9
1800	89
1850	90.3
1900	91.4
1950	90.2
2000	88.5
2060	89.8
2120	92.2
2180	91.4
2240	90.4
2300	90.9
2360	90.3
2400	87.8
2500	85.7
2580	85.1
2650	85.4
2720	84.9
2800	85.8
2900	85.5
3000	84.3
3070	82.7
3150	80.9
3250	80.8
3350	81.5
3450	81.3
3550	82.3
3650	82
3750	82.4
3870	82.6
4000	83.1
4120	84
4250	83.8
4370	83.3
4500	82.9
4620	83.1
4750	81.5
4870	80.9
5000	81.4
5150	83.5
5300	84.7
5450	85.6
5600	90.6
5800	90.9
6000	90.3
6150	91.6
6300	93
6500	92.3
6700	90.9
6900	90.6
7100	90.8
7300	90
7500	89.6
7750	89.5
8000	90.9
8250	90.5
8500	91
8750	89.6
9000	93
9250	95.1
9500	92
9750	89.5
10000	91.2
10300	93.3
10600	94.2
10900	89.1
11200	88.9
11500	88
11800	87.5
12200	84.9
12500	83.6
12800	77.5
13200	69.4
13600	76.4
14000	78.8
14500	78.4
15000	75.7
15500	79.6
16000	78.4
16500	75.9
17000	76.2
17500	73.2
18000	70.8
18500	62
19000	62.6
19500	65.9
20000	70.8
20600	67.1
21200	69.2
21800	74.2
22400	59.5
