Frequency Spectrum for Input Signal

Data Shown:    V2-28 (Community)
Display Parameters:   Frequency: 1000Hz (1/24th Octave)   Mer: 90°  Par: 130°

Freq [Hz]	Signal Level [dBSPL]
22.4	56.4
23	57
23.6	57.6
24	58.4
25	59.2
25.8	60
26.5	60.7
27.2	61.3
28	61.9
29	62.5
30	63.1
30.7	63.7
31.5	64.3
32.5	64.9
33.5	65.4
34.5	65.9
35.5	66.4
36.5	67.1
37.5	67.7
38.7	68.2
40	68.8
41.2	69.2
42.5	69.8
43.7	70.3
45	70.9
46.2	71.4
47.5	71.8
48.7	72.4
50	72.9
51.5	73.4
53	73.8
54.5	74.4
56	74.9
58	75.4
60	75.8
61.5	76.4
63	76.8
65	77.3
67	77.8
69	78.3
71	78.7
73	79.2
75	79.7
77.5	80.1
80	80.6
82.5	81
85	81.4
87.5	81.8
90	82.2
92.5	82.6
95	83
97.5	83.4
100	83.7
103	84
106	84.4
109	84.6
112	84.9
115	85.1
118	85.3
122	85.5
125	85.6
128	85.6
132	85.7
136	85.6
140	85.6
145	85.4
150	85.2
155	84.9
160	84.6
165	84.1
170	83.7
175	83.2
180	82.8
185	82.5
190	82.4
195	82.5
200	83
206	83.6
212	84.3
218	85
224	85.6
230	86
236	86.3
240	86.4
250	86.4
258	86
265	85.5
272	84.8
280	83.8
290	82.9
300	82.1
307	81.6
315	81.6
325	81.8
335	82
345	82.1
355	82
365	81.6
375	81.1
387	80.3
400	79.2
412	78.1
425	77.2
437	76.8
450	77
462	77.4
475	77.6
487	77.2
500	76.3
515	75
530	73.9
545	73.3
560	72.8
580	72.3
600	72.1
615	72.1
630	72.1
650	72
670	71.6
690	70.5
710	69
730	74
750	75.2
775	74.4
800	72.2
825	69.2
850	66.5
875	67.4
900	69.4
925	69.9
950	69.1
975	67.5
1000	64.8
1030	62.5
1060	63.6
1090	65.7
1120	66.5
1150	65.5
1180	63.8
1220	65.2
1250	66.5
1280	63.8
1320	62
1360	67.6
1400	70.1
1450	70.8
1500	71.2
1550	73.5
1600	76.2
1650	76.1
1700	73.5
1750	69.6
1800	70
1850	72.3
1900	71.9
1950	69.6
2000	67.6
2060	71
2120	74
2180	72
2240	71.4
2300	69.2
2360	68
2400	67.9
2500	61.4
2580	59.1
2650	60.6
2720	63.8
2800	67.8
2900	69.6
3000	69.4
3070	70.8
3150	63.5
3250	63.7
3350	65.3
3450	61.6
3550	68.2
3650	66.1
3750	62.9
3870	63.1
4000	63
4120	64.6
4250	66.4
4370	65.1
4500	60.7
4620	65.5
4750	64.2
4870	61
5000	63.7
5150	67.7
5300	66.2
5450	66.2
5600	69
5800	68.5
6000	70.3
6150	67
6300	69.8
6500	65.9
6700	64
6900	63.9
7100	66.2
7300	66.4
7500	67.9
7750	67.6
8000	63.7
8250	64
8500	64.4
8750	58.6
9000	60.2
9250	66.2
9500	63.8
9750	63.3
10000	67.5
10300	71.7
10600	70
10900	65.9
11200	63.8
11500	60.5
11800	63.7
12200	62.6
12500	67.5
12800	56.2
13200	48.3
13600	44.4
14000	51.7
14500	54.4
15000	54.3
15500	58.3
16000	53.7
16500	47.4
17000	47.6
17500	45.1
18000	44.6
18500	36.5
19000	39.4
19500	44.8
20000	54.7
20600	54.8
21200	48.3
21800	61.6
22400	47.1
