Frequency Spectrum for Input Signal

Data Shown:    V2-28 (Community)
Display Parameters:   Frequency: 1000Hz (1/24th Octave)   Mer: 0°  Par: 100°

Freq [Hz]	Signal Level [dBSPL]
22.4	58.8
23	59.3
23.6	59.9
24	60.6
25	61.3
25.8	61.9
26.5	62.6
27.2	63.1
28	63.7
29	64.2
30	64.7
30.7	65.3
31.5	65.9
32.5	66.4
33.5	66.9
34.5	67.4
35.5	67.9
36.5	68.4
37.5	69
38.7	69.5
40	70
41.2	70.4
42.5	70.9
43.7	71.4
45	71.9
46.2	72.4
47.5	72.9
48.7	73.4
50	73.9
51.5	74.3
53	74.7
54.5	75.3
56	75.8
58	76.2
60	76.7
61.5	77.2
63	77.6
65	78.1
67	78.6
69	79
71	79.5
73	80
75	80.4
77.5	80.8
80	81.3
82.5	81.7
85	82.2
87.5	82.6
90	83
92.5	83.4
95	83.8
97.5	84.1
100	84.5
103	84.8
106	85.1
109	85.4
112	85.7
115	85.9
118	86.1
122	86.3
125	86.4
128	86.5
132	86.5
136	86.5
140	86.4
145	86.3
150	86.1
155	85.8
160	85.5
165	85
170	84.6
175	84.1
180	83.7
185	83.4
190	83.2
195	83.4
200	83.8
206	84.4
212	85
218	85.7
224	86.2
230	86.6
236	86.9
240	87
250	86.8
258	86.5
265	85.9
272	85.2
280	84.3
290	83.4
300	82.7
307	82.4
315	82.5
325	82.9
335	83.4
345	83.8
355	84.1
365	84.2
375	84.1
387	83.9
400	83.5
412	83
425	82.6
437	82.7
450	83.3
462	83.9
475	84.2
487	83.9
500	83
515	82
530	81.7
545	82
560	82.5
580	82.8
600	83.1
615	83.4
630	83.6
650	83.2
670	81.8
690	77.8
710	73.6
730	77.6
750	79.3
775	79.7
800	79.1
825	78.3
850	77.6
875	76.3
900	74
925	71.2
950	70.1
975	71.9
1000	73.4
1030	73.9
1060	74
1090	74.3
1120	75.1
1150	75.6
1180	75.1
1220	75.1
1250	76.2
1280	76.4
1320	77.6
1360	79
1400	79.2
1450	79.3
1500	79.1
1550	79.1
1600	81.3
1650	82.9
1700	83.2
1750	81.8
1800	80.1
1850	79.8
1900	79.2
1950	76.7
2000	76.4
2060	77
2120	77.6
2180	77.6
2240	74.5
2300	72.5
2360	72.3
2400	70.6
2500	68.6
2580	69.8
2650	70.8
2720	71.8
2800	73.7
2900	73.3
3000	73.3
3070	71.3
3150	70.3
3250	70.9
3350	70.5
3450	69.5
3550	69.8
3650	69.9
3750	69.9
3870	71.3
4000	72.8
4120	74.4
4250	72.2
4370	71.9
4500	70.2
4620	68.6
4750	63.8
4870	63.7
5000	66.1
5150	69.7
5300	70.8
5450	69.5
5600	73.2
5800	71
6000	69.1
6150	69.4
6300	69.8
6500	68.3
6700	70.9
6900	71.6
7100	71.6
7300	68.6
7500	65.7
7750	66.4
8000	71.6
8250	71.5
8500	69.7
8750	61.9
9000	63.3
9250	66.5
9500	66.2
9750	63.7
10000	61.2
10300	61.9
10600	66.6
10900	67.5
11200	66.3
11500	60
11800	57.4
12200	56.9
12500	58.2
12800	59.1
13200	52.3
13600	55.3
14000	57.2
14500	58.7
15000	62.4
15500	60.1
16000	54.3
16500	51.6
17000	51.6
17500	49.4
18000	50.3
18500	40.2
19000	40.9
19500	45.6
20000	51.6
20600	53.1
21200	55
21800	67.4
22400	53.2
