Frequency Spectrum for Input Signal

Data Shown:    V2-28 (Community)
Display Parameters:   Frequency: 1000Hz (1/24th Octave)   Mer: 180°  Par: 90°

Freq [Hz]	Signal Level [dBSPL]
22.4	59.2
23	59.8
23.6	60.3
24	61
25	61.7
25.8	62.3
26.5	62.9
27.2	63.4
28	64
29	64.5
30	65
30.7	65.6
31.5	66.2
32.5	66.7
33.5	67.2
34.5	67.7
35.5	68.1
36.5	68.7
37.5	69.2
38.7	69.7
40	70.2
41.2	70.6
42.5	71.2
43.7	71.7
45	72.2
46.2	72.6
47.5	73.1
48.7	73.6
50	74.1
51.5	74.6
53	75
54.5	75.5
56	76
58	76.5
60	76.9
61.5	77.4
63	77.9
65	78.3
67	78.8
69	79.3
71	79.8
73	80.2
75	80.7
77.5	81.1
80	81.6
82.5	82
85	82.4
87.5	82.9
90	83.3
92.5	83.7
95	84
97.5	84.4
100	84.8
103	85.1
106	85.4
109	85.7
112	86
115	86.2
118	86.4
122	86.6
125	86.7
128	86.8
132	86.8
136	86.8
140	86.7
145	86.6
150	86.4
155	86.1
160	85.8
165	85.3
170	84.9
175	84.4
180	84
185	83.6
190	83.6
195	83.7
200	84.1
206	84.7
212	85.4
218	86
224	86.5
230	87
236	87.2
240	87.3
250	87.2
258	86.8
265	86.3
272	85.5
280	84.7
290	83.8
300	83.2
307	82.9
315	83.1
325	83.6
335	84.2
345	84.8
355	85.2
365	85.4
375	85.5
387	85.3
400	85
412	84.5
425	84.1
437	84.1
450	84.7
462	85.2
475	85.5
487	85.1
500	84.2
515	83.2
530	82.7
545	82.9
560	83.3
580	83.4
600	83.5
615	83.6
630	83.6
650	83
670	81.3
690	76.9
710	72.8
730	77.5
750	79.7
775	80.2
800	79.7
825	79
850	78.3
875	77.2
900	75.4
925	73.8
950	74
975	75.4
1000	76.2
1030	76.3
1060	76.3
1090	76.6
1120	77.1
1150	77.3
1180	76.7
1220	76.9
1250	78.1
1280	78.5
1320	79.7
1360	80.8
1400	80.4
1450	79.9
1500	79.4
1550	79.9
1600	81.9
1650	83.1
1700	83.1
1750	82
1800	81
1850	81.4
1900	81.6
1950	79.5
2000	77.6
2060	77.2
2120	78.2
2180	77.8
2240	74.9
2300	74.6
2360	73.1
2400	69.9
2500	69.8
2580	70.5
2650	71
2720	73
2800	74.4
2900	74.5
3000	73.9
3070	72.3
3150	72.1
3250	70.7
3350	71.4
3450	70.3
3550	71.6
3650	69.2
3750	69.1
3870	72.3
4000	72.8
4120	75.8
4250	73.5
4370	73.2
4500	72
4620	68.8
4750	64.2
4870	64
5000	67.3
5150	70.8
5300	72.7
5450	72.6
5600	76.4
5800	72.9
6000	68.8
6150	69.3
6300	72.5
6500	71.5
6700	72.5
6900	73.2
7100	74.1
7300	71.7
7500	69.3
7750	70.1
8000	73.2
8250	74.3
8500	73.1
8750	65
9000	67.3
9250	68.9
9500	70.7
9750	68
10000	63.1
10300	64.3
10600	70.9
10900	70.7
11200	71.9
11500	61.9
11800	61.4
12200	55
12500	58.4
12800	58
13200	52.6
13600	60.3
14000	61.1
14500	61.1
15000	66.1
15500	63.2
16000	57
16500	56.7
17000	56.3
17500	52.9
18000	55.7
18500	42.6
19000	42.9
19500	47
20000	52.4
20600	52.2
21200	59.6
21800	69.6
22400	49
