Frequency Spectrum for Input Signal

Data Shown:    V2-28 (Community)
Display Parameters:   Frequency: 1000Hz (1/24th Octave)   Mer: 270°  Par: 150°

Freq [Hz]	Signal Level [dBSPL]
22.4	58.7
23	59.3
23.6	59.9
24	60.7
25	61.4
25.8	62.1
26.5	62.8
27.2	63.4
28	64
29	64.5
30	65.1
30.7	65.7
31.5	66.3
32.5	66.9
33.5	67.4
34.5	67.9
35.5	68.4
36.5	69
37.5	69.5
38.7	70
40	70.4
41.2	70.9
42.5	71.4
43.7	71.9
45	72.4
46.2	72.8
47.5	73.2
48.7	73.7
50	74.2
51.5	74.6
53	75
54.5	75.5
56	76
58	76.4
60	76.8
61.5	77.3
63	77.7
65	78.1
67	78.6
69	79
71	79.4
73	79.9
75	80.3
77.5	80.7
80	81.2
82.5	81.6
85	82
87.5	82.4
90	82.8
92.5	83.1
95	83.5
97.5	83.8
100	84.2
103	84.5
106	84.8
109	85.1
112	85.3
115	85.5
118	85.7
122	85.9
125	86
128	86.1
132	86.1
136	86.1
140	86
145	85.9
150	85.6
155	85.4
160	85
165	84.6
170	84.1
175	83.6
180	83.2
185	82.8
190	82.7
195	82.8
200	83.1
206	83.7
212	84.3
218	84.9
224	85.4
230	85.7
236	85.9
240	86
250	85.8
258	85.5
265	85
272	84.2
280	83.4
290	82.6
300	82
307	81.7
315	81.9
325	82.3
335	82.7
345	83
355	83.2
365	83.1
375	82.7
387	82.1
400	81.2
412	80.2
425	79.2
437	78.7
450	78.7
462	78.9
475	78.9
487	78.4
500	77.4
515	76.1
530	75.2
545	74.7
560	74.6
580	74.9
600	75.7
615	76.9
630	78.1
650	78.7
670	78.1
690	74.4
710	69.1
730	67.6
750	65.4
775	69.5
800	71.5
825	72.3
850	72.7
875	72.7
900	72.2
925	71.5
950	70.7
975	69.8
1000	68.3
1030	65.8
1060	61.6
1090	54.6
1120	55.1
1150	55.6
1180	47.6
1220	55.9
1250	59.1
1280	54
1320	49.3
1360	53.3
1400	57.6
1450	64.8
1500	66.9
1550	64.5
1600	66.7
1650	73.2
1700	75.6
1750	75.8
1800	75
1850	74.3
1900	73.8
1950	72.4
2000	70.2
2060	70.1
2120	75.2
2180	75.8
2240	74.4
2300	73.3
2360	69.9
2400	63.3
2500	58.3
2580	57
2650	58.3
2720	66.8
2800	68.6
2900	62.1
3000	54.2
3070	59.9
3150	59.2
3250	58.9
3350	68
3450	66.7
3550	64.6
3650	62.9
3750	64.8
3870	64.3
4000	59.4
4120	54.2
4250	60.8
4370	62
4500	65.6
4620	62.8
4750	62.1
4870	62.7
5000	59.4
5150	55.4
5300	57
5450	59.4
5600	63
5800	62.9
6000	57.2
6150	63.3
6300	62.4
6500	57.7
6700	57.7
6900	56.3
7100	57.9
7300	61.6
7500	64.1
7750	58.8
8000	64
8250	60.1
8500	62.8
8750	59.8
9000	52.4
9250	56.2
9500	55.7
9750	56.8
10000	57.4
10300	61
10600	60.9
10900	60.9
11200	62.1
11500	55.1
11800	55.4
12200	53.7
12500	57.1
12800	52.8
13200	44.7
13600	41.2
14000	42.9
14500	42.2
15000	45.1
15500	45.4
16000	42.8
16500	43.4
17000	37.9
17500	38.4
18000	34.5
18500	37.7
19000	35.4
19500	36.3
20000	48.9
20600	49.2
21200	52.1
21800	63.5
22400	57.1
