Frequency Spectrum for Input Signal

Data Shown:    V2-3294 (Community)
Display Parameters:   Frequency: 1000Hz (1/24th Octave)   Mer: 0°  Par: 110°

Freq [Hz]	Signal Level [dBSPL]
22.4	73.2
23	73.6
23.6	74
24	74.4
25	74.8
25.8	75.1
26.5	75.4
27.2	75.8
28	76.2
29	76.6
30	77
30.7	77.4
31.5	77.8
32.5	78.1
33.5	78.5
34.5	78.9
35.5	79.3
36.5	79.6
37.5	79.9
38.7	80.1
40	80.4
41.2	80.8
42.5	81.1
43.7	81.4
45	81.7
46.2	82.1
47.5	82.4
48.7	82.7
50	83
51.5	83.3
53	83.6
54.5	83.9
56	84.2
58	84.6
60	84.9
61.5	85.2
63	85.5
65	85.8
67	86.1
69	86.4
71	86.8
73	87.1
75	87.5
77.5	87.9
80	88.3
82.5	88.7
85	89.1
87.5	89.5
90	90
92.5	90.4
95	90.8
97.5	91.1
100	91.4
103	91.8
106	92.1
109	92.3
112	92.5
115	92.7
118	92.8
122	92.8
125	92.8
128	92.7
132	92.5
136	92.3
140	92
145	91.6
150	91.2
155	90.8
160	90.3
165	89.8
170	89.2
175	88.8
180	88.4
185	88.1
190	87.9
195	88
200	88.2
206	88.7
212	89.2
218	90.2
224	91.1
230	91.1
236	90.8
240	90.1
250	89.5
258	89
265	88.2
272	87.3
280	85.9
290	86.8
300	85.4
307	84.2
315	86.2
325	85.5
335	85.6
345	86.4
355	86.6
365	87.3
375	87.7
387	88.2
400	85.6
412	86.8
425	86.2
437	88.1
450	86.3
462	87
475	87.5
487	87
500	85.1
515	85.5
530	82.4
545	79.7
560	75.3
580	85.5
600	85.9
615	85.5
630	82
650	86.4
670	82.5
690	78.9
710	78.6
730	73.5
750	77.5
775	78.8
800	75
825	79.3
850	79.2
875	75.8
900	72.7
925	79.5
950	79.1
975	73.2
1000	78.1
1030	76
1060	76.6
1090	71.6
1120	77.3
1150	76.2
1180	74
1220	70.3
1250	76.3
1280	75.2
1320	73.2
1360	72.5
1400	73.4
1450	74.3
1500	76
1550	73.8
1600	74.5
1650	75.5
1700	77.1
1750	79.2
1800	73.8
1850	78.5
1900	78.2
1950	73.2
2000	73
2060	78.2
2120	77.3
2180	76.4
2240	70
2300	68.2
2360	71
2400	65.9
2500	74
2580	73.9
2650	66.6
2720	76.1
2800	74.4
2900	73.5
3000	66.2
3070	65
3150	70.9
3250	65.1
3350	72.2
3450	80.6
3550	76.7
3650	74.8
3750	71.8
3870	76.4
4000	67.1
4120	68.7
4250	63.1
4370	63.3
4500	68.1
4620	71.4
4750	71.8
4870	64.6
5000	65.2
5150	67.3
5300	63.5
5450	67
5600	68.6
5800	76.5
6000	73.3
6150	65.3
6300	68.3
6500	70.2
6700	73.8
6900	65.1
7100	63.8
7300	65.3
7500	63.3
7750	69.3
8000	70.4
8250	65.6
8500	69.2
8750	69.6
9000	65.5
9250	68.8
9500	55.8
9750	62.8
10000	66.3
10300	66.1
10600	65.1
10900	66.5
11200	69.6
11500	69.8
11800	65.5
12200	65.3
12500	64.3
12800	60.8
13200	62.9
13600	59.8
14000	52.7
14500	54.6
15000	62.7
15500	59.4
16000	61.2
16500	59.4
17000	51.1
17500	52.9
18000	46.4
18500	46.3
19000	50.6
19500	48.6
20000	55.8
20600	56.4
21200	57.5
21800	58.5
22400	66.1
