Frequency Spectrum for Input Signal

Data Shown:    V2-3294 (Community)
Display Parameters:   Frequency: 1000Hz (1/24th Octave)   Mer: 90°  Par: 10°

Freq [Hz]	Signal Level [dBSPL]
22.4	71
23	71.4
23.6	71.8
24	72.2
25	72.6
25.8	73
26.5	73.3
27.2	73.8
28	74.2
29	74.6
30	75
30.7	75.4
31.5	75.8
32.5	76.2
33.5	76.6
34.5	77
35.5	77.4
36.5	77.8
37.5	78.2
38.7	78.5
40	78.9
41.2	79.3
42.5	79.7
43.7	80.1
45	80.4
46.2	80.8
47.5	81.2
48.7	81.6
50	82
51.5	82.5
53	82.9
54.5	83.3
56	83.7
58	84.1
60	84.5
61.5	84.9
63	85.4
65	85.8
67	86.2
69	86.6
71	87
73	87.6
75	88.1
77.5	88.6
80	89.1
82.5	89.5
85	90.1
87.5	90.6
90	91.2
92.5	91.7
95	92.2
97.5	92.6
100	93.1
103	93.5
106	93.9
109	94.2
112	94.5
115	94.8
118	95
122	95
125	95.1
128	95.1
132	94.9
136	94.7
140	94.4
145	94
150	93.6
155	93.2
160	92.6
165	92
170	91.5
175	91.1
180	90.8
185	90.7
190	90.9
195	91.3
200	91.9
206	92.6
212	93.5
218	94.7
224	95.7
230	95.9
236	95.6
240	95
250	94.3
258	93.6
265	92.9
272	92.3
280	92
290	92
300	92.4
307	92.9
315	93.5
325	93.9
335	94.2
345	94.3
355	94.4
365	94.5
375	94.9
387	95.1
400	95.4
412	95.7
425	96
437	96.5
450	96.8
462	97
475	97.2
487	96.6
500	95.4
515	93.5
530	91.3
545	90.9
560	92.2
580	93.2
600	93.7
615	94
630	93.8
650	94.1
670	94.1
690	94
710	93.8
730	93.4
750	92.4
775	92
800	91.5
825	92.2
850	91.6
875	90.9
900	90.4
925	90.1
950	89.9
975	89.5
1000	89.3
1030	88.8
1060	88.9
1090	89.3
1120	88.9
1150	88.8
1180	89.2
1220	89.6
1250	89.1
1280	89.3
1320	89.8
1360	90.3
1400	91.3
1450	92.3
1500	93.2
1550	93.8
1600	93.7
1650	93.7
1700	93.4
1750	92.9
1800	92.4
1850	92.3
1900	92.6
1950	92.8
2000	92.9
2060	93.4
2120	93.6
2180	93.8
2240	93.6
2300	93.5
2360	92.5
2400	91.2
2500	91.2
2580	91.8
2650	91.6
2720	91.3
2800	89.9
2900	88.2
3000	88.9
3070	90.2
3150	90.4
3250	90.8
3350	91.6
3450	91.8
3550	92.8
3650	92.3
3750	92.3
3870	92.5
4000	91.8
4120	91
4250	90.3
4370	89.4
4500	88.5
4620	89.9
4750	91
4870	92.4
5000	93.8
5150	94.5
5300	94
5450	93
5600	91.7
5800	96.2
6000	94
6150	94.2
6300	95.3
6500	94.4
6700	92.2
6900	92.4
7100	92.4
7300	92.7
7500	91
7750	90.3
8000	92.8
8250	91.8
8500	93.4
8750	91.4
9000	90.2
9250	90.9
9500	90.2
9750	89
10000	92
10300	94.7
10600	98.8
10900	98.2
11200	99.6
11500	95
11800	92.9
12200	94.3
12500	92.7
12800	92.7
13200	90
13600	86.8
14000	83.6
14500	84.1
15000	87.2
15500	87.4
16000	81.2
16500	79
17000	76.5
17500	70.7
18000	71.5
18500	69.4
19000	70.6
19500	63.4
20000	66.5
20600	64
21200	69
21800	71.3
22400	76.4
