Frequency Spectrum for Input Signal

Data Shown:    V2-3294 (Community)
Display Parameters:   Frequency: 1000Hz (1/24th Octave)   Mer: 270°  Par: 110°

Freq [Hz]	Signal Level [dBSPL]
22.4	75.9
23	76.4
23.6	76.8
24	77.2
25	77.7
25.8	78.1
26.5	78.4
27.2	78.9
28	79.3
29	79.7
30	80.1
30.7	80.5
31.5	80.9
32.5	81.3
33.5	81.7
34.5	82.1
35.5	82.5
36.5	82.8
37.5	83.1
38.7	83.4
40	83.6
41.2	84
42.5	84.3
43.7	84.6
45	85
46.2	85.3
47.5	85.6
48.7	85.9
50	86.1
51.5	86.4
53	86.7
54.5	87
56	87.3
58	87.7
60	88
61.5	88.2
63	88.4
65	88.7
67	89
69	89.3
71	89.6
73	89.9
75	90.2
77.5	90.5
80	90.9
82.5	91.2
85	91.6
87.5	92
90	92.3
92.5	92.7
95	93
97.5	93.3
100	93.6
103	93.8
106	94.1
109	94.2
112	94.4
115	94.5
118	94.5
122	94.5
125	94.4
128	94.3
132	94
136	93.7
140	93.2
145	92.8
150	92.2
155	91.5
160	90.7
165	89.8
170	88.7
175	87.5
180	86
185	84.6
190	83
195	82.6
200	82.9
206	85
212	87.1
218	89.6
224	91.6
230	92.6
236	93.1
240	93.1
250	92.9
258	92.5
265	91.8
272	91.1
280	90.3
290	87.8
300	88.2
307	86.7
315	86.2
325	87.6
335	88.6
345	88.9
355	88.5
365	88.3
375	86.9
387	84.4
400	87.1
412	78.1
425	84.2
437	80.7
450	83.7
462	88.8
475	84.3
487	84.7
500	90.8
515	85.2
530	81.9
545	85
560	85.5
580	83.3
600	81
615	84
630	87.8
650	85.9
670	81.3
690	51.4
710	79.1
730	82.5
750	85.4
775	83
800	82.1
825	82.4
850	81
875	76.8
900	80.1
925	80.6
950	79.2
975	76.2
1000	75.9
1030	76.1
1060	74.2
1090	79.3
1120	74.3
1150	74.6
1180	76.4
1220	79.6
1250	74.9
1280	77.2
1320	69.7
1360	75.6
1400	74
1450	77.2
1500	75.7
1550	77.5
1600	78.5
1650	76.2
1700	79.5
1750	78.4
1800	70.6
1850	74.6
1900	80.2
1950	80.2
2000	77.4
2060	69.5
2120	73.5
2180	76.8
2240	72.1
2300	63.8
2360	66.7
2400	71.6
2500	76.6
2580	68.5
2650	67.5
2720	71.1
2800	76.8
2900	70.1
3000	73.3
3070	75.3
3150	63.7
3250	77.2
3350	72.6
3450	76
3550	64.9
3650	75.3
3750	59.9
3870	69.6
4000	63.5
4120	75.3
4250	76.3
4370	71.8
4500	66.8
4620	71.9
4750	70.1
4870	69.2
5000	69.8
5150	74.6
5300	69.4
5450	65.4
5600	65.6
5800	72.1
6000	62.5
6150	70.4
6300	70.9
6500	70.7
6700	51.8
6900	63.7
7100	61.3
7300	68.7
7500	64
7750	61.9
8000	70.6
8250	70
8500	60.5
8750	65.8
9000	66.7
9250	58.6
9500	53.9
9750	58.1
10000	65.6
10300	66.6
10600	71.2
10900	68.2
11200	67.7
11500	61
11800	52.8
12200	65.6
12500	62.7
12800	66.5
13200	66.8
13600	62.3
14000	58.6
14500	59.2
15000	58
15500	65.9
16000	61.6
16500	60.9
17000	54
17500	50.9
18000	49.2
18500	54.4
19000	48.6
19500	52.4
20000	54.7
20600	55.3
21200	60.3
21800	66.1
22400	70
