Frequency Spectrum for Input Signal

Data Shown:    V2-3294 (Community)
Display Parameters:   Frequency: 1000Hz (1/24th Octave)   Mer: 270°  Par: 140°

Freq [Hz]	Signal Level [dBSPL]
22.4	75.7
23	76.1
23.6	76.6
24	77
25	77.4
25.8	77.8
26.5	78.1
27.2	78.6
28	78.9
29	79.3
30	79.7
30.7	80.1
31.5	80.5
32.5	80.9
33.5	81.3
34.5	81.8
35.5	82.1
36.5	82.4
37.5	82.7
38.7	82.9
40	83.2
41.2	83.5
42.5	83.9
43.7	84.2
45	84.5
46.2	84.9
47.5	85.2
48.7	85.4
50	85.7
51.5	86
53	86.2
54.5	86.6
56	86.9
58	87.2
60	87.5
61.5	87.7
63	88
65	88.2
67	88.5
69	88.8
71	89.2
73	89.4
75	89.8
77.5	90.1
80	90.4
82.5	90.8
85	91.1
87.5	91.5
90	91.9
92.5	92.2
95	92.6
97.5	92.8
100	93.1
103	93.4
106	93.6
109	93.8
112	93.9
115	94
118	94
122	94
125	93.9
128	93.8
132	93.6
136	93.2
140	92.9
145	92.4
150	91.9
155	91.3
160	90.6
165	89.8
170	88.9
175	87.8
180	86.5
185	85
190	83.2
195	81.6
200	79.6
206	80.1
212	81.6
218	84.7
224	87.2
230	88.6
236	89.3
240	89.5
250	89.4
258	89.2
265	88.7
272	87.9
280	86.3
290	84.8
300	84.6
307	82.9
315	83.6
325	83.4
335	84.5
345	85.9
355	87
365	88.5
375	89.2
387	88.6
400	83.1
412	86.5
425	80.4
437	83
450	79.5
462	80.7
475	82.9
487	86.6
500	80.4
515	77.9
530	83
545	77.2
560	77.3
580	81.1
600	82.1
615	84.9
630	70.8
650	81.5
670	83.1
690	79.1
710	81.1
730	82.2
750	79.7
775	76.2
800	75.7
825	74.6
850	79.7
875	74.8
900	74.1
925	76.1
950	77.6
975	73
1000	73.1
1030	76.1
1060	76.3
1090	74.4
1120	76.5
1150	77.3
1180	77.6
1220	76.6
1250	73.6
1280	74.9
1320	71.4
1360	73.8
1400	72.6
1450	74.5
1500	77
1550	76.4
1600	77.3
1650	74.3
1700	79.7
1750	75.7
1800	73
1850	75.4
1900	77.5
1950	76.9
2000	72
2060	71.9
2120	72
2180	75.2
2240	73
2300	71.4
2360	70.2
2400	70.4
2500	75.2
2580	66.9
2650	66.1
2720	64.8
2800	70.6
2900	70.3
3000	72
3070	76.6
3150	74.7
3250	69.7
3350	71.5
3450	73.7
3550	76.9
3650	77.2
3750	75.4
3870	66.5
4000	70.4
4120	76
4250	74.3
4370	67.2
4500	68.6
4620	68.9
4750	59.9
4870	60.4
5000	69.2
5150	68.9
5300	63.4
5450	66.1
5600	75.3
5800	70.9
6000	72.8
6150	66.4
6300	67.5
6500	53.8
6700	66.3
6900	65.1
7100	68.7
7300	61.8
7500	63
7750	59.7
8000	63.2
8250	63
8500	65
8750	67.3
9000	69.3
9250	68.1
9500	63
9750	60.7
10000	70.6
10300	67.2
10600	72.8
10900	69.6
11200	66.2
11500	61.8
11800	58.4
12200	59.3
12500	53.7
12800	48.6
13200	62.1
13600	55.5
14000	52.7
14500	52.7
15000	49.6
15500	60.5
16000	58.3
16500	61.9
17000	52
17500	44.6
18000	51.6
18500	43.8
19000	53.5
19500	48
20000	50.5
20600	52.5
21200	58.7
21800	66.2
22400	64.7
