Frequency Spectrum for Input Signal

Data Shown:    V2-3294 (Community)
Display Parameters:   Frequency: 1000Hz (1/24th Octave)   Mer: 90°  Par: 50°

Freq [Hz]	Signal Level [dBSPL]
22.4	70.1
23	70.5
23.6	70.9
24	71.2
25	71.6
25.8	72
26.5	72.3
27.2	72.7
28	73.1
29	73.4
30	73.8
30.7	74.2
31.5	74.6
32.5	75
33.5	75.4
34.5	75.8
35.5	76.1
36.5	76.5
37.5	76.8
38.7	77.1
40	77.5
41.2	77.8
42.5	78.2
43.7	78.6
45	78.9
46.2	79.3
47.5	79.6
48.7	80
50	80.4
51.5	80.8
53	81.2
54.5	81.6
56	81.9
58	82.3
60	82.7
61.5	83.1
63	83.5
65	83.9
67	84.3
69	84.7
71	85.1
73	85.6
75	86.1
77.5	86.6
80	87
82.5	87.5
85	88
87.5	88.5
90	89
92.5	89.5
95	90
97.5	90.4
100	90.9
103	91.2
106	91.6
109	91.9
112	92.1
115	92.4
118	92.5
122	92.5
125	92.5
128	92.4
132	92.2
136	91.9
140	91.5
145	91.1
150	90.5
155	89.9
160	89.3
165	88.6
170	88
175	87.6
180	87.4
185	87.6
190	88.1
195	89
200	89.9
206	91
212	92.1
218	93.5
224	94.7
230	94.9
236	94.8
240	94.2
250	93.4
258	92.6
265	91.6
272	90.4
280	89.1
290	89
300	89.2
307	89.3
315	90.6
325	90.7
335	90.6
345	90.8
355	90.7
365	89.9
375	89
387	90.2
400	88.8
412	89.2
425	90
437	91.4
450	91.1
462	91.1
475	91.6
487	89.9
500	88.5
515	85.2
530	83
545	75.2
560	82.3
580	82.2
600	80.4
615	78.2
630	73.3
650	77.1
670	77.4
690	86
710	87.1
730	85.4
750	85.8
775	83
800	79.7
825	85.3
850	80.3
875	78.7
900	80.4
925	82.3
950	81.5
975	81.6
1000	81
1030	81
1060	78.8
1090	79.9
1120	79.5
1150	79.4
1180	80
1220	80.4
1250	79.2
1280	80.7
1320	79
1360	80.4
1400	81
1450	83.2
1500	82.2
1550	82.6
1600	80.5
1650	82.3
1700	81.4
1750	81.4
1800	81.8
1850	81.9
1900	82.8
1950	81.9
2000	81.5
2060	78.4
2120	81
2180	79.8
2240	83.1
2300	85.4
2360	85.4
2400	83.5
2500	82.1
2580	81.7
2650	81.9
2720	83.3
2800	84.1
2900	82
3000	80.8
3070	82.5
3150	86
3250	84.6
3350	83.8
3450	89.5
3550	88.7
3650	86.1
3750	82.7
3870	83
4000	82.2
4120	77.6
4250	78.1
4370	78
4500	77.8
4620	77.8
4750	77.4
4870	78.6
5000	80.1
5150	75.8
5300	75.6
5450	78.7
5600	79.1
5800	77.9
6000	81.2
6150	80.3
6300	76
6500	77.5
6700	79.5
6900	79
7100	80.4
7300	82.4
7500	83.5
7750	81.5
8000	83.2
8250	81.9
8500	79.7
8750	83.2
9000	80.8
9250	78.6
9500	74.9
9750	78.9
10000	75.3
10300	78.5
10600	72.6
10900	74.5
11200	79.6
11500	72.1
11800	69.1
12200	70.2
12500	75.7
12800	77.9
13200	75.3
13600	72.5
14000	64.9
14500	62.3
15000	64.1
15500	72
16000	73.6
16500	70.8
17000	60.4
17500	67.7
18000	67.2
18500	66
19000	66
19500	61.7
20000	63.7
20600	58.1
21200	63.5
21800	63.3
22400	66.1
